pos,corr_resp,trials.thisRepN,trials.thisTrialN,trials.thisN,trials.thisIndex,trials_2.thisRepN,trials_2.thisTrialN,trials_2.thisN,trials_2.thisIndex,fixation.started,line1.started,line2.started,line3.started,line4.started,fixation.stopped,probe.started,key_resp.started,key_resp.keys,key_resp.corr,key_resp.rt,key_resp.duration,participant,session,date,expName,psychopyVersion,frameRate,
-50,x,0,0,0,0,,,,,8.772727499948815,9.75710079993587,9.75710079993587,9.75710079993587,9.75710079993587,9.773597699939273,10.757216600002721,10.757216600002721,x,1,0.7821579000446945,None,286699,001,2023-10-17_22h50.55.379,motor_sequence_learning,2023.1.3,59.978647592482915,
150,v,0,1,1,1,,,,,11.556738900020719,12.54049759998452,12.54049759998452,12.54049759998452,12.54049759998452,12.55690029996913,13.557648799964227,13.557648799964227,v,1,0.825920999981463,None,286699,001,2023-10-17_22h50.55.379,motor_sequence_learning,2023.1.3,59.978647592482915,
50,c,0,2,2,2,,,,,14.407096599927172,15.407677099923603,15.407677099923603,15.407677099923603,15.407677099923603,15.407677099923603,16.408048199955374,16.408048199955374,c,1,0.33482300001196563,None,286699,001,2023-10-17_22h50.55.379,motor_sequence_learning,2023.1.3,59.978647592482915,
-150,z,0,3,3,3,,,,,16.77502329996787,17.773897200007923,17.773897200007923,17.773897200007923,17.773897200007923,17.773897200007923,18.774135899962857,18.774135899962857,z,1,0.4256312999641523,None,286699,001,2023-10-17_22h50.55.379,motor_sequence_learning,2023.1.3,59.978647592482915,
-50,x,1,0,4,0,,,,,19.22400559997186,20.224369199946523,20.224369199946523,20.224369199946523,20.224369199946523,20.224369199946523,21.224765999941155,21.224765999941155,x,1,0.6414214000105858,None,286699,001,2023-10-17_22h50.55.379,motor_sequence_learning,2023.1.3,59.978647592482915,
150,v,1,1,5,1,,,,,21.890286899986677,22.89057689998299,22.89057689998299,22.89057689998299,22.89057689998299,22.89057689998299,23.891034899977967,23.891034899977967,v,1,0.3019072999013588,None,286699,001,2023-10-17_22h50.55.379,motor_sequence_learning,2023.1.3,59.978647592482915,
50,c,1,2,6,2,,,,,24.223797000013292,25.20766369998455,25.20766369998455,25.20766369998455,25.20766369998455,25.224107099929824,26.20674269995652,26.20674269995652,c,1,0.42154399992432445,None,286699,001,2023-10-17_22h50.55.379,motor_sequence_learning,2023.1.3,59.978647592482915,
-150,z,1,3,7,3,,,,,26.65677310002502,27.641105799935758,27.641105799935758,27.641105799935758,27.641105799935758,27.657184300012887,28.6409034000244,28.6409034000244,z,1,0.3638944999547675,None,286699,001,2023-10-17_22h50.55.379,motor_sequence_learning,2023.1.3,59.978647592482915,
-50,x,2,0,8,0,,,,,29.024430599994957,30.02401579997968,30.02401579997968,30.02401579997968,30.02401579997968,30.02401579997968,31.024412099970505,31.024412099970505,x,1,0.32221829995978624,None,286699,001,2023-10-17_22h50.55.379,motor_sequence_learning,2023.1.3,59.978647592482915,
150,v,2,1,9,1,,,,,31.37322690000292,32.37479029991664,32.37479029991664,32.37479029991664,32.37479029991664,32.37479029991664,33.35716739995405,33.35716739995405,v,1,0.342629799968563,None,286699,001,2023-10-17_22h50.55.379,motor_sequence_learning,2023.1.3,59.978647592482915,
50,c,2,2,10,2,,,,,33.72425630001817,34.723825499997474,34.723825499997474,34.723825499997474,34.723825499997474,34.723825499997474,35.72386929998174,35.72386929998174,c,1,0.34197449998464435,None,286699,001,2023-10-17_22h50.55.379,motor_sequence_learning,2023.1.3,59.978647592482915,
-150,z,2,3,11,3,,,,,36.09048699995037,37.09037579991855,37.09037579991855,37.09037579991855,37.09037579991855,37.09037579991855,38.09002739994321,38.09002739994321,z,1,0.27301949996035546,None,286699,001,2023-10-17_22h50.55.379,motor_sequence_learning,2023.1.3,59.978647592482915,
-50,x,3,0,12,0,,,,,38.38987710000947,39.39032539993059,39.39032539993059,39.39032539993059,39.39032539993059,39.39032539993059,40.38999219995458,40.38999219995458,x,1,0.3397294000023976,None,286699,001,2023-10-17_22h50.55.379,motor_sequence_learning,2023.1.3,59.978647592482915,
150,v,3,1,13,1,,,,,40.75657389999833,41.74173080001492,41.74173080001492,41.74173080001492,41.74173080001492,41.75660790002439,42.73966630001087,42.73966630001087,v,1,0.39795200002845377,None,286699,001,2023-10-17_22h50.55.379,motor_sequence_learning,2023.1.3,59.978647592482915,
50,c,3,2,14,2,,,,,43.15698849991895,44.15645369992126,44.15645369992126,44.15645369992126,44.15645369992126,44.15645369992126,45.15637440001592,45.15637440001592,c,1,0.338656899984926,None,286699,001,2023-10-17_22h50.55.379,motor_sequence_learning,2023.1.3,59.978647592482915,
-150,z,3,3,15,3,,,,,45.52409229998011,46.5250213999534,46.5250213999534,46.5250213999534,46.5250213999534,46.5250213999534,47.506491099949926,47.506491099949926,z,1,0.33428760000970215,None,286699,001,2023-10-17_22h50.55.379,motor_sequence_learning,2023.1.3,59.978647592482915,
-50,x,4,0,16,0,,,,,47.87330799992196,48.873636099975556,48.873636099975556,48.873636099975556,48.873636099975556,48.873636099975556,49.87332879996393,49.87332879996393,x,1,1.1997242999495938,None,286699,001,2023-10-17_22h50.55.379,motor_sequence_learning,2023.1.3,59.978647592482915,
150,v,4,1,17,1,,,,,51.08949409995694,52.08997620001901,52.08997620001901,52.08997620001901,52.08997620001901,52.08997620001901,53.07468760001939,53.07468760001939,v,1,1.2236140000168234,None,286699,001,2023-10-17_22h50.55.379,motor_sequence_learning,2023.1.3,59.978647592482915,
50,c,4,2,18,2,,,,,54.3243705999339,55.32401059998665,55.32401059998665,55.32401059998665,55.32401059998665,55.32401059998665,56.324332499993034,56.324332499993034,c,1,0.3149585999781266,None,286699,001,2023-10-17_22h50.55.379,motor_sequence_learning,2023.1.3,59.978647592482915,
-150,z,4,3,19,3,,,,,56.65708349994384,57.65736700000707,57.65736700000707,57.65736700000707,57.65736700000707,57.65736700000707,58.65734909998719,58.65734909998719,z,1,0.2928186000790447,None,286699,001,2023-10-17_22h50.55.379,motor_sequence_learning,2023.1.3,59.978647592482915,
-50,x,5,0,20,0,,,,,58.97477510001045,59.974270200007595,59.974270200007595,59.974270200007595,59.974270200007595,59.974270200007595,60.973914099973626,60.973914099973626,x,1,0.5790864999871701,None,286699,001,2023-10-17_22h50.55.379,motor_sequence_learning,2023.1.3,59.978647592482915,
150,v,5,1,21,1,,,,,61.57379429996945,62.55770260002464,62.55770260002464,62.55770260002464,62.55770260002464,62.5737625999609,63.57401009998284,63.57401009998284,v,1,2.141381000052206,None,286699,001,2023-10-17_22h50.55.379,motor_sequence_learning,2023.1.3,59.978647592482915,
50,c,5,2,22,2,,,,,65.74061809992418,66.73988030001055,66.73988030001055,66.73988030001055,66.73988030001055,66.73988030001055,67.73982579994481,67.73982579994481,c,1,0.40683779993560165,None,286699,001,2023-10-17_22h50.55.379,motor_sequence_learning,2023.1.3,59.978647592482915,
-150,z,5,3,23,3,,,,,68.17304589995183,69.17266329994891,69.17266329994891,69.17266329994891,69.17266329994891,69.17266329994891,70.17311259999406,70.17311259999406,z,1,0.6859861999982968,None,286699,001,2023-10-17_22h50.55.379,motor_sequence_learning,2023.1.3,59.978647592482915,
-50,x,6,0,24,0,,,,,70.8893962999573,71.8892764999764,71.8892764999764,71.8892764999764,71.8892764999764,71.8892764999764,72.8897262000246,72.8897262000246,x,1,1.973722199909389,None,286699,001,2023-10-17_22h50.55.379,motor_sequence_learning,2023.1.3,59.978647592482915,
150,v,6,1,25,1,,,,,74.8894839999266,75.88970759999938,75.88970759999938,75.88970759999938,75.88970759999938,75.88970759999938,76.88897989992984,76.88897989992984,v,1,0.7584069999866188,None,286699,001,2023-10-17_22h50.55.379,motor_sequence_learning,2023.1.3,59.978647592482915,
50,c,6,2,26,2,,,,,77.67292419995647,78.67369600001257,78.67369600001257,78.67369600001257,78.67369600001257,78.67369600001257,79.67306169995572,79.67306169995572,c,1,0.37730359996203333,None,286699,001,2023-10-17_22h50.55.379,motor_sequence_learning,2023.1.3,59.978647592482915,
-150,z,6,3,27,3,,,,,80.07234339998104,81.05692669993732,81.05692669993732,81.05692669993732,81.05692669993732,81.07286389998626,82.07225600001402,82.07225600001402,z,1,0.3802382000721991,None,286699,001,2023-10-17_22h50.55.379,motor_sequence_learning,2023.1.3,59.978647592482915,
-50,x,7,0,28,0,,,,,82.47287009994034,83.4556802000152,83.4556802000152,83.4556802000152,83.4556802000152,83.472986400011,84.45623040001374,84.45623040001374,x,1,0.37900259997695684,None,286699,001,2023-10-17_22h50.55.379,motor_sequence_learning,2023.1.3,59.978647592482915,
150,v,7,1,29,1,,,,,84.85629319993313,85.85607119998895,85.85607119998895,85.85607119998895,85.85607119998895,85.85607119998895,86.85628940002061,86.85628940002061,v,1,0.36640950001310557,None,286699,001,2023-10-17_22h50.55.379,motor_sequence_learning,2023.1.3,59.978647592482915,
50,c,7,2,30,2,,,,,87.24009839992505,88.23918169992976,88.23918169992976,88.23918169992976,88.23918169992976,88.23918169992976,89.2393251999747,89.2393251999747,c,1,0.5603972000535578,None,286699,001,2023-10-17_22h50.55.379,motor_sequence_learning,2023.1.3,59.978647592482915,
-150,z,7,3,31,3,,,,,89.82237900001928,90.82234459999017,90.82234459999017,90.82234459999017,90.82234459999017,90.82234459999017,91.82214840000961,91.82214840000961,z,1,0.3216097999829799,None,286699,001,2023-10-17_22h50.55.379,motor_sequence_learning,2023.1.3,59.978647592482915,
-50,x,8,0,32,0,,,,,92.17243959999178,93.17235629993957,93.17235629993957,93.17235629993957,93.17235629993957,93.17235629993957,94.1723222999135,94.1723222999135,x,1,0.3453260000096634,None,286699,001,2023-10-17_22h50.55.379,motor_sequence_learning,2023.1.3,59.978647592482915,
150,v,8,1,33,1,,,,,94.53918269998394,95.53917649993673,95.53917649993673,95.53917649993673,95.53917649993673,95.53917649993673,96.5388501000125,96.5388501000125,v,1,0.6523070000112057,None,286699,001,2023-10-17_22h50.55.379,motor_sequence_learning,2023.1.3,59.978647592482915,
50,c,8,2,34,2,,,,,97.22248320002109,98.22241369995754,98.22241369995754,98.22241369995754,98.22241369995754,98.22241369995754,99.22221079992596,99.22221079992596,c,1,0.6797707000514492,None,286699,001,2023-10-17_22h50.55.379,motor_sequence_learning,2023.1.3,59.978647592482915,
-150,z,8,3,35,3,,,,,99.92226499994285,100.92230779991951,100.92230779991951,100.92230779991951,100.92230779991951,100.92230779991951,101.92207809991669,101.92207809991669,z,1,0.4236236000433564,None,286699,001,2023-10-17_22h50.55.379,motor_sequence_learning,2023.1.3,59.978647592482915,
-50,x,9,0,36,0,,,,,102.37239309994038,103.37271819997113,103.37271819997113,103.37271819997113,103.37271819997113,103.37271819997113,104.37196109991055,104.37196109991055,x,1,0.27699959999881685,None,286699,001,2023-10-17_22h50.55.379,motor_sequence_learning,2023.1.3,59.978647592482915,
150,v,9,1,37,1,,,,,104.67191139992792,105.67203659994993,105.67203659994993,105.67203659994993,105.67203659994993,105.67203659994993,106.67190720001236,106.67190720001236,v,1,0.38986060000024736,None,286699,001,2023-10-17_22h50.55.379,motor_sequence_learning,2023.1.3,59.978647592482915,
50,c,9,2,38,2,,,,,107.08859709999524,108.07220930000767,108.07220930000767,108.07220930000767,108.07220930000767,108.08925860002637,109.07178459991701,109.07178459991701,x,0,1.1699856000486761,None,286699,001,2023-10-17_22h50.55.379,motor_sequence_learning,2023.1.3,59.978647592482915,
-150,z,9,3,39,3,,,,,110.27191160002258,111.27246539993212,111.27246539993212,111.27246539993212,111.27246539993212,111.27246539993212,112.27245089993812,112.27245089993812,z,1,0.393093999940902,None,286699,001,2023-10-17_22h50.55.379,motor_sequence_learning,2023.1.3,59.978647592482915,
-50,x,10,0,40,0,,,,,112.68884560000151,113.68867469998077,113.68867469998077,113.68867469998077,113.68867469998077,113.68867469998077,114.68850569997448,114.68850569997448,x,1,0.3890838000224903,None,286699,001,2023-10-17_22h50.55.379,motor_sequence_learning,2023.1.3,59.978647592482915,
150,v,10,1,41,1,,,,,115.10568899998907,116.08875509991776,116.08875509991776,116.08875509991776,116.08875509991776,116.1050927999895,117.08871249994263,117.08871249994263,v,1,0.3658920000307262,None,286699,001,2023-10-17_22h50.55.379,motor_sequence_learning,2023.1.3,59.978647592482915,
50,c,10,2,42,2,,,,,117.47200049995445,118.47218799998518,118.47218799998518,118.47218799998518,118.47218799998518,118.47218799998518,119.4725177999353,119.4725177999353,c,1,0.32073379994835705,None,286699,001,2023-10-17_22h50.55.379,motor_sequence_learning,2023.1.3,59.978647592482915,
-150,z,10,3,43,3,,,,,119.82202650001273,120.82199610001408,120.82199610001408,120.82199610001408,120.82199610001408,120.82199610001408,121.82232949999161,121.82232949999161,z,1,0.3434869000921026,None,286699,001,2023-10-17_22h50.55.379,motor_sequence_learning,2023.1.3,59.978647592482915,
-50,x,11,0,44,0,,,,,122.18868639995344,123.18796979996841,123.18796979996841,123.18796979996841,123.18796979996841,123.18796979996841,124.18872340000235,124.18872340000235,x,1,0.497633200022392,None,286699,001,2023-10-17_22h50.55.379,motor_sequence_learning,2023.1.3,59.978647592482915,
150,v,11,1,45,1,,,,,124.70521459996235,125.70563039998524,125.70563039998524,125.70563039998524,125.70563039998524,125.70563039998524,126.70550379995257,126.70550379995257,v,1,0.36048279993701726,None,286699,001,2023-10-17_22h50.55.379,motor_sequence_learning,2023.1.3,59.978647592482915,
50,c,11,2,46,2,,,,,127.0886129999999,128.090741999913,128.090741999913,128.090741999913,128.090741999913,128.090741999913,129.08862269995734,129.08862269995734,c,1,0.4292406999738887,None,286699,001,2023-10-17_22h50.55.379,motor_sequence_learning,2023.1.3,59.978647592482915,
-150,z,11,3,47,3,,,,,129.5392898999853,130.53873549995478,130.53873549995478,130.53873549995478,130.53873549995478,130.53873549995478,131.53853199991863,131.53853199991863,z,1,0.3514141000341624,None,286699,001,2023-10-17_22h50.55.379,motor_sequence_learning,2023.1.3,59.978647592482915,
-50,x,12,0,48,0,,,,,131.92213049996644,132.92184049997013,132.92184049997013,132.92184049997013,132.92184049997013,132.92184049997013,133.921762199956,133.921762199956,x,1,0.3272455999394879,None,286699,001,2023-10-17_22h50.55.379,motor_sequence_learning,2023.1.3,59.978647592482915,
150,v,12,1,49,1,,,,,134.27161769999657,135.25520819996018,135.25520819996018,135.25520819996018,135.25520819996018,135.27222529996652,136.27167940000072,136.27167940000072,v,1,0.20826450001914054,None,286699,001,2023-10-17_22h50.55.379,motor_sequence_learning,2023.1.3,59.978647592482915,
50,c,12,2,50,2,,,,,136.50472259998787,137.50447009992786,137.50447009992786,137.50447009992786,137.50447009992786,137.50447009992786,138.50525980000384,138.50525980000384,c,1,0.4810237999772653,None,286699,001,2023-10-17_22h50.55.379,motor_sequence_learning,2023.1.3,59.978647592482915,
-150,z,12,3,51,3,,,,,139.004912699922,140.0056996999774,140.0056996999774,140.0056996999774,140.0056996999774,140.0056996999774,141.0047475999454,141.0047475999454,z,1,0.43218669993802905,None,286699,001,2023-10-17_22h50.55.379,motor_sequence_learning,2023.1.3,59.978647592482915,
-50,x,13,0,52,0,,,,,141.45496749994345,142.45506029995158,142.45506029995158,142.45506029995158,142.45506029995158,142.45506029995158,143.45512539998163,143.45512539998163,x,1,0.3626570999622345,None,286699,001,2023-10-17_22h50.55.379,motor_sequence_learning,2023.1.3,59.978647592482915,
150,v,13,1,53,1,,,,,143.83834549994208,144.82205700001214,144.82205700001214,144.82205700001214,144.82205700001214,144.83854799997061,145.83855919993948,145.83855919993948,v,1,0.328549399971962,None,286699,001,2023-10-17_22h50.55.379,motor_sequence_learning,2023.1.3,59.978647592482915,
50,c,13,2,54,2,,,,,146.1882693999214,147.17136799998116,147.17136799998116,147.17136799998116,147.17136799998116,147.18790839996655,148.18826680001803,148.18826680001803,c,1,0.8618723000399768,None,286699,001,2023-10-17_22h50.55.379,motor_sequence_learning,2023.1.3,59.978647592482915,
-150,z,13,3,55,3,,,,,149.07153670000844,150.0714292000048,150.0714292000048,150.0714292000048,150.0714292000048,150.0714292000048,151.07173710002098,151.07173710002098,z,1,0.6699837000342086,None,286699,001,2023-10-17_22h50.55.379,motor_sequence_learning,2023.1.3,59.978647592482915,
-50,x,14,0,56,0,,,,,151.77126750000753,152.7715273000067,152.7715273000067,152.7715273000067,152.7715273000067,152.7715273000067,153.77109689998906,153.77109689998906,x,1,0.7159915000665933,None,286699,001,2023-10-17_22h50.55.379,motor_sequence_learning,2023.1.3,59.978647592482915,
150,v,14,1,57,1,,,,,154.50474519992713,155.504740400007,155.504740400007,155.504740400007,155.504740400007,155.504740400007,156.50447219994385,156.50447219994385,v,1,1.0332231000065804,None,286699,001,2023-10-17_22h50.55.379,motor_sequence_learning,2023.1.3,59.978647592482915,
50,c,14,2,58,2,,,,,157.55477399996016,158.53805470000952,158.53805470000952,158.53805470000952,158.53805470000952,158.55477449996397,159.554701999994,159.554701999994,c,1,0.7556098999921232,None,286699,001,2023-10-17_22h50.55.379,motor_sequence_learning,2023.1.3,59.978647592482915,
-150,z,14,3,59,3,,,,,160.33776169992052,161.33887570002116,161.33887570002116,161.33887570002116,161.33887570002116,161.33887570002116,162.33794739993755,162.33794739993755,z,1,1.250300999963656,None,286699,001,2023-10-17_22h50.55.379,motor_sequence_learning,2023.1.3,59.978647592482915,
-50,x,15,0,60,0,,,,,163.6211036000168,164.62128359999042,164.62128359999042,164.62128359999042,164.62128359999042,164.62128359999042,165.62132689997088,165.62132689997088,x,1,0.2849427000619471,None,286699,001,2023-10-17_22h50.55.379,motor_sequence_learning,2023.1.3,59.978647592482915,
150,v,15,1,61,1,,,,,165.93801569996867,166.93790189991705,166.93790189991705,166.93790189991705,166.93790189991705,166.93790189991705,167.93772179994266,167.93772179994266,v,1,0.8669362000655383,None,286699,001,2023-10-17_22h50.55.379,motor_sequence_learning,2023.1.3,59.978647592482915,
50,c,15,2,62,2,,,,,168.8210813999176,169.8044620999135,169.8044620999135,169.8044620999135,169.8044620999135,169.82120000000577,170.820905999979,170.820905999979,c,1,0.3007676999550313,None,286699,001,2023-10-17_22h50.55.379,motor_sequence_learning,2023.1.3,59.978647592482915,
-150,z,15,3,63,3,,,,,171.1540256999433,172.1543040999677,172.1543040999677,172.1543040999677,172.1543040999677,172.1543040999677,173.15461490000598,173.15461490000598,z,1,2.0565376000013202,None,286699,001,2023-10-17_22h50.55.379,motor_sequence_learning,2023.1.3,59.978647592482915,
-50,x,16,0,64,0,,,,,175.2379885999253,176.23785599996336,176.23785599996336,176.23785599996336,176.23785599996336,176.23785599996336,177.2375123000238,177.2375123000238,x,1,0.7635022000176832,None,286699,001,2023-10-17_22h50.55.379,motor_sequence_learning,2023.1.3,59.978647592482915,
150,v,16,1,65,1,,,,,178.02071429998614,179.02103479998186,179.02103479998186,179.02103479998186,179.02103479998186,179.02103479998186,180.02050470001996,180.02050470001996,v,1,0.8851657999912277,None,286699,001,2023-10-17_22h50.55.379,motor_sequence_learning,2023.1.3,59.978647592482915,
50,c,16,2,66,2,,,,,180.93730859993957,181.92104279994965,181.92104279994965,181.92104279994965,181.92104279994965,181.93759949994273,182.93753579992335,182.93753579992335,c,1,0.4678622999927029,None,286699,001,2023-10-17_22h50.55.379,motor_sequence_learning,2023.1.3,59.978647592482915,
-150,z,16,3,67,3,,,,,183.43709619995207,184.4376087000128,184.4376087000128,184.4376087000128,184.4376087000128,184.4376087000128,185.43746899999678,185.43746899999678,z,1,0.34670550003647804,None,286699,001,2023-10-17_22h50.55.379,motor_sequence_learning,2023.1.3,59.978647592482915,
-50,x,17,0,68,0,,,,,185.804210399976,186.7877817999106,186.7877817999106,186.7877817999106,186.7877817999106,186.80579000001308,187.80392069998197,187.80392069998197,x,1,0.486020699958317,None,286699,001,2023-10-17_22h50.55.379,motor_sequence_learning,2023.1.3,59.978647592482915,
150,v,17,1,69,1,,,,,188.3211949999677,189.32114309992176,189.32114309992176,189.32114309992176,189.32114309992176,189.32114309992176,190.32110179995652,190.32110179995652,v,1,0.4181672999402508,None,286699,001,2023-10-17_22h50.55.379,motor_sequence_learning,2023.1.3,59.978647592482915,
50,c,17,2,70,2,,,,,190.77099400002044,191.7709775000112,191.7709775000112,191.7709775000112,191.7709775000112,191.7709775000112,192.77092229994014,192.77092229994014,c,1,0.37443279998842627,None,286699,001,2023-10-17_22h50.55.379,motor_sequence_learning,2023.1.3,59.978647592482915,
-150,z,17,3,71,3,,,,,193.17042759992182,194.1706281999359,194.1706281999359,194.1706281999359,194.1706281999359,194.1706281999359,195.1706383000128,195.1706383000128,z,1,0.2943053999915719,None,286699,001,2023-10-17_22h50.55.379,motor_sequence_learning,2023.1.3,59.978647592482915,
-50,x,18,0,72,0,,,,,195.48727389995474,196.4875034999568,196.4875034999568,196.4875034999568,196.4875034999568,196.4875034999568,197.47046530002262,197.47046530002262,x,1,0.3138770000077784,None,286699,001,2023-10-17_22h50.55.379,motor_sequence_learning,2023.1.3,59.978647592482915,
150,v,18,1,73,1,,,,,197.80382259993348,198.80433369998354,198.80433369998354,198.80433369998354,198.80433369998354,198.80433369998354,199.80407910002396,199.80407910002396,v,1,0.3768681000219658,None,286699,001,2023-10-17_22h50.55.379,motor_sequence_learning,2023.1.3,59.978647592482915,
50,c,18,2,74,2,,,,,200.20401879993733,201.20373109995853,201.20373109995853,201.20373109995853,201.20373109995853,201.20373109995853,202.2037709999131,202.2037709999131,c,1,0.2658333999570459,None,286699,001,2023-10-17_22h50.55.379,motor_sequence_learning,2023.1.3,59.978647592482915,
-150,z,18,3,75,3,,,,,202.48717169999145,203.48728030000348,203.48728030000348,203.48728030000348,203.48728030000348,203.48728030000348,204.48721129994374,204.48721129994374,z,1,0.12782789999619126,None,286699,001,2023-10-17_22h50.55.379,motor_sequence_learning,2023.1.3,59.978647592482915,
-50,x,19,0,76,0,,,,,204.6372028000187,205.63709759991616,205.63709759991616,205.63709759991616,205.63709759991616,205.63709759991616,206.62068559997715,206.62068559997715,x,1,0.41746140003670007,None,286699,001,2023-10-17_22h50.55.379,motor_sequence_learning,2023.1.3,59.978647592482915,
150,v,19,1,77,1,,,,,207.07038509997074,208.07064009993337,208.07064009993337,208.07064009993337,208.07064009993337,208.07064009993337,209.07038629997987,209.07038629997987,v,1,0.791175099904649,None,286699,001,2023-10-17_22h50.55.379,motor_sequence_learning,2023.1.3,59.978647592482915,
50,c,19,2,78,2,,,,,209.88688160001766,210.88719619996846,210.88719619996846,210.88719619996846,210.88719619996846,210.88719619996846,211.88716859999113,211.88716859999113,c,1,0.3073884000768885,None,286699,001,2023-10-17_22h50.55.379,motor_sequence_learning,2023.1.3,59.978647592482915,
-150,z,19,3,79,3,,,,,212.22062069992535,213.20451730000786,213.20451730000786,213.20451730000786,213.20451730000786,213.22141009999905,214.2051349999383,214.2051349999383,z,1,0.6913665001047775,None,286699,001,2023-10-17_22h50.55.379,motor_sequence_learning,2023.1.3,59.978647592482915,
-50,x,20,0,80,0,,,,,214.92108629993163,215.92114420002326,215.92114420002326,215.92114420002326,215.92114420002326,215.92114420002326,216.92078359995503,216.92078359995503,x,1,0.9776983999181539,None,286699,001,2023-10-17_22h50.55.379,motor_sequence_learning,2023.1.3,59.978647592482915,
150,v,20,1,81,1,,,,,217.92115850001574,218.92102289991453,218.92102289991453,218.92102289991453,218.92102289991453,218.92102289991453,219.91983789997175,219.91983789997175,v,1,0.5517497999826446,None,286699,001,2023-10-17_22h50.55.379,motor_sequence_learning,2023.1.3,59.978647592482915,
50,c,20,2,82,2,,,,,220.5032911999151,221.5033975999104,221.5033975999104,221.5033975999104,221.5033975999104,221.5033975999104,222.50375059992075,222.50375059992075,c,1,0.12408440001308918,None,286699,001,2023-10-17_22h50.55.379,motor_sequence_learning,2023.1.3,59.978647592482915,
-150,z,20,3,83,3,,,,,222.65347060002387,223.65344139991794,223.65344139991794,223.65344139991794,223.65344139991794,223.65344139991794,224.65342270000838,224.65342270000838,z,1,0.3269568000687286,None,286699,001,2023-10-17_22h50.55.379,motor_sequence_learning,2023.1.3,59.978647592482915,
-50,x,21,0,84,0,,,,,225.0035845999373,226.003967299941,226.003967299941,226.003967299941,226.003967299941,226.003967299941,227.0036726000253,227.0036726000253,x,1,0.4201827000360936,None,286699,001,2023-10-17_22h50.55.379,motor_sequence_learning,2023.1.3,59.978647592482915,
150,v,21,1,85,1,,,,,227.45308339991607,228.43667949992232,228.43667949992232,228.43667949992232,228.43667949992232,228.4535303999437,229.45320049999282,229.45320049999282,v,1,0.3643343999283388,None,286699,001,2023-10-17_22h50.55.379,motor_sequence_learning,2023.1.3,59.978647592482915,
50,c,21,2,86,2,,,,,229.837316500023,230.8366691999836,230.8366691999836,230.8366691999836,230.8366691999836,230.8366691999836,231.83640439994633,231.83640439994633,c,1,0.588736700010486,None,286699,001,2023-10-17_22h50.55.379,motor_sequence_learning,2023.1.3,59.978647592482915,
-150,z,21,3,87,3,,,,,232.45312670001294,233.43805270001758,233.43805270001758,233.43805270001758,233.43805270001758,233.45456179999746,234.43764689995442,234.43764689995442,z,1,0.4648113999282941,None,286699,001,2023-10-17_22h50.55.379,motor_sequence_learning,2023.1.3,59.978647592482915,
-50,x,22,0,88,0,,,,,234.92086900002323,235.90411130001303,235.90411130001303,235.90411130001303,235.90411130001303,235.92132580000907,236.90368589991704,236.90368589991704,x,1,0.3091172999702394,None,286699,001,2023-10-17_22h50.55.379,motor_sequence_learning,2023.1.3,59.978647592482915,
150,v,22,1,89,1,,,,,237.23912809998728,238.2382219999563,238.2382219999563,238.2382219999563,238.2382219999563,238.2545872000046,239.23688909993507,239.23688909993507,v,1,0.0026184000307694077,None,286699,001,2023-10-17_22h50.55.379,motor_sequence_learning,2023.1.3,59.978647592482915,
50,c,22,2,90,2,,,,,239.27105340000708,240.2707060999237,240.2707060999237,240.2707060999237,240.2707060999237,240.2707060999237,241.2702204999514,241.2702204999514,c,1,0.35942550003528595,None,286699,001,2023-10-17_22h50.55.379,motor_sequence_learning,2023.1.3,59.978647592482915,
-150,z,22,3,91,3,,,,,241.65419739997014,242.65330529992934,242.65330529992934,242.65330529992934,242.65330529992934,242.65330529992934,243.653371399967,243.653371399967,z,1,0.5991804999066517,None,286699,001,2023-10-17_22h50.55.379,motor_sequence_learning,2023.1.3,59.978647592482915,
-50,x,23,0,92,0,,,,,244.26987439999357,245.2697456999449,245.2697456999449,245.2697456999449,245.2697456999449,245.2697456999449,246.26987909991294,246.26987909991294,x,1,0.3802857999689877,None,286699,001,2023-10-17_22h50.55.379,motor_sequence_learning,2023.1.3,59.978647592482915,
150,v,23,1,93,1,,,,,246.66953269997612,247.6697456999682,247.6697456999682,247.6697456999682,247.6697456999682,247.6697456999682,248.67007959994953,248.67007959994953,v,1,0.35037809994537383,None,286699,001,2023-10-17_22h50.55.379,motor_sequence_learning,2023.1.3,59.978647592482915,
50,c,23,2,94,2,,,,,249.05281459994148,250.05290839995723,250.05290839995723,250.05290839995723,250.05290839995723,250.05290839995723,251.0529115999816,251.0529115999816,c,1,0.2850154999177903,None,286699,001,2023-10-17_22h50.55.379,motor_sequence_learning,2023.1.3,59.978647592482915,
-150,z,23,3,95,3,,,,,251.36972489999607,252.3698215999175,252.3698215999175,252.3698215999175,252.3698215999175,252.3698215999175,253.3694119999418,253.3694119999418,z,1,0.1435537999495864,None,286699,001,2023-10-17_22h50.55.379,motor_sequence_learning,2023.1.3,59.978647592482915,
-50,x,24,0,96,0,,,,,253.5360604999587,254.53674629994202,254.53674629994202,254.53674629994202,254.53674629994202,254.53674629994202,255.53625559993088,255.53625559993088,x,1,0.22009319998323917,None,286699,001,2023-10-17_22h50.55.379,motor_sequence_learning,2023.1.3,59.978647592482915,
150,v,24,1,97,1,,,,,255.78627119993325,256.7697653999785,256.7697653999785,256.7697653999785,256.7697653999785,256.78642879996914,257.78605569992214,257.78605569992214,v,1,0.006583999958820641,None,286699,001,2023-10-17_22h50.55.379,motor_sequence_learning,2023.1.3,59.978647592482915,
50,c,24,2,98,2,,,,,257.81915449991357,258.80297429999337,258.80297429999337,258.80297429999337,258.80297429999337,258.82004479994066,259.8197678999277,259.8197678999277,c,1,0.3434230999555439,None,286699,001,2023-10-17_22h50.55.379,motor_sequence_learning,2023.1.3,59.978647592482915,
-150,z,24,3,99,3,,,,,260.1859969999641,261.18618399999104,261.18618399999104,261.18618399999104,261.18618399999104,261.18618399999104,262.18558239995036,262.18558239995036,z,1,0.32355339999776334,None,286699,001,2023-10-17_22h50.55.379,motor_sequence_learning,2023.1.3,59.978647592482915,
-50,x,25,0,100,0,,,,,262.5358932999661,263.5192506000167,263.5192506000167,263.5192506000167,263.5192506000167,263.53632269997615,264.51959219994023,264.51959219994023,x,1,0.32519000000320375,None,286699,001,2023-10-17_22h50.55.379,motor_sequence_learning,2023.1.3,59.978647592482915,
150,v,25,1,101,1,,,,,264.86921969999094,265.86933449993376,265.86933449993376,265.86933449993376,265.86933449993376,265.86933449993376,266.8695450000232,266.8695450000232,v,1,0.3198931000661105,None,286699,001,2023-10-17_22h50.55.379,motor_sequence_learning,2023.1.3,59.978647592482915,
50,c,25,2,102,2,,,,,267.2190702999942,268.20228580001276,268.20228580001276,268.20228580001276,268.20228580001276,268.2194120999193,269.2193281999789,269.2193281999789,c,1,0.09167690004687756,None,286699,001,2023-10-17_22h50.55.379,motor_sequence_learning,2023.1.3,59.978647592482915,
-150,z,25,3,103,3,,,,,269.3356812999118,270.335837099934,270.335837099934,270.335837099934,270.335837099934,270.335837099934,271.3359739999287,271.3359739999287,z,1,0.35268120002001524,None,286699,001,2023-10-17_22h50.55.379,motor_sequence_learning,2023.1.3,59.978647592482915,
-50,x,26,0,104,0,,,,,271.7192701000022,272.7191739999689,272.7191739999689,272.7191739999689,272.7191739999689,272.7191739999689,273.71912269992754,273.71912269992754,x,1,0.28927670000121,None,286699,001,2023-10-17_22h50.55.379,motor_sequence_learning,2023.1.3,59.978647592482915,
150,v,26,1,105,1,,,,,274.03562719991896,275.0197079000063,275.0197079000063,275.0197079000063,275.0197079000063,275.03595769999083,276.0357459000079,276.0357459000079,v,1,0.44230020011309534,None,286699,001,2023-10-17_22h50.55.379,motor_sequence_learning,2023.1.3,59.978647592482915,
50,c,26,2,106,2,,,,,276.50252189999446,277.50290359999053,277.50290359999053,277.50290359999053,277.50290359999053,277.50290359999053,278.50262769998517,278.50262769998517,c,1,0.4239893000340089,None,286699,001,2023-10-17_22h50.55.379,motor_sequence_learning,2023.1.3,59.978647592482915,
-150,z,26,3,107,3,,,,,278.9525097999722,279.9524997000117,279.9524997000117,279.9524997000117,279.9524997000117,279.9524997000117,280.9526501999935,280.9526501999935,z,1,0.3051001999992877,None,286699,001,2023-10-17_22h50.55.379,motor_sequence_learning,2023.1.3,59.978647592482915,
-50,x,27,0,108,0,,,,,281.28557599999476,282.28577339998446,282.28577339998446,282.28577339998446,282.28577339998446,282.28577339998446,283.2857111999765,283.2857111999765,x,1,0.33843540004454553,None,286699,001,2023-10-17_22h50.55.379,motor_sequence_learning,2023.1.3,59.978647592482915,
150,v,27,1,109,1,,,,,283.6523136999458,284.65353170002345,284.65353170002345,284.65353170002345,284.65353170002345,284.65353170002345,285.65230119996704,285.65230119996704,v,1,0.5825123001122847,None,286699,001,2023-10-17_22h50.55.379,motor_sequence_learning,2023.1.3,59.978647592482915,
50,c,27,2,110,2,,,,,286.25220400001854,287.25250279996544,287.25250279996544,287.25250279996544,287.25250279996544,287.25250279996544,288.2525359999854,288.2525359999854,c,1,0.44693470001220703,None,286699,001,2023-10-17_22h50.55.379,motor_sequence_learning,2023.1.3,59.978647592482915,
-150,z,27,3,111,3,,,,,288.7191837999271,289.719365799916,289.719365799916,289.719365799916,289.719365799916,289.719365799916,290.7192019999493,290.7192019999493,z,1,0.3303488000528887,None,286699,001,2023-10-17_22h50.55.379,motor_sequence_learning,2023.1.3,59.978647592482915,
-50,x,28,0,112,0,,,,,291.06914029992186,292.0689242000226,292.0689242000226,292.0689242000226,292.0689242000226,292.0689242000226,293.0688891999889,293.0688891999889,x,1,0.24829870008397847,None,286699,001,2023-10-17_22h50.55.379,motor_sequence_learning,2023.1.3,59.978647592482915,
150,v,28,1,113,1,,,,,293.33541189995594,294.3359951999737,294.3359951999737,294.3359951999737,294.3359951999737,294.3359951999737,295.3354456999805,295.3354456999805,v,1,0.27373969997279346,None,286699,001,2023-10-17_22h50.55.379,motor_sequence_learning,2023.1.3,59.978647592482915,
50,c,28,2,114,2,,,,,295.63538079999853,296.635771799949,296.635771799949,296.635771799949,296.635771799949,296.635771799949,297.63526719994843,297.63526719994843,c,1,0.2777442999649793,None,286699,001,2023-10-17_22h50.55.379,motor_sequence_learning,2023.1.3,59.978647592482915,
-150,z,28,3,115,3,,,,,297.9354179999791,298.93557289999444,298.93557289999444,298.93557289999444,298.93557289999444,298.93557289999444,299.9351561999647,299.9351561999647,z,1,0.19736310001462698,None,286699,001,2023-10-17_22h50.55.379,motor_sequence_learning,2023.1.3,59.978647592482915,
-50,x,29,0,116,0,,,,,300.15243419993203,301.15209619991947,301.15209619991947,301.15209619991947,301.15209619991947,301.15209619991947,302.1518873999594,302.1518873999594,x,1,0.27575939998496324,None,286699,001,2023-10-17_22h50.55.379,motor_sequence_learning,2023.1.3,59.978647592482915,
150,v,29,1,117,1,,,,,302.45176680001896,303.45272019994445,303.45272019994445,303.45272019994445,303.45272019994445,303.45272019994445,304.45233909995295,304.45233909995295,v,1,0.47773769998457283,None,286699,001,2023-10-17_22h50.55.379,motor_sequence_learning,2023.1.3,59.978647592482915,
50,c,29,2,118,2,,,,,304.952008399996,305.93556050001644,305.93556050001644,305.93556050001644,305.93556050001644,305.9519231999293,306.9519225999247,306.9519225999247,c,1,0.4315225000027567,None,286699,001,2023-10-17_22h50.55.379,motor_sequence_learning,2023.1.3,59.978647592482915,
-150,z,29,3,119,3,,,,,307.4015896000201,308.4018025000114,308.4018025000114,308.4018025000114,308.4018025000114,308.4018025000114,309.4022189999232,309.4022189999232,z,1,0.032195799984037876,None,286699,001,2023-10-17_22h50.55.379,motor_sequence_learning,2023.1.3,59.978647592482915,
-50,x,30,0,120,0,,,,,309.4517453999724,310.4518954999512,310.4518954999512,310.4518954999512,310.4518954999512,310.4518954999512,311.451905899914,311.451905899914,x,1,0.33411439997144043,None,286699,001,2023-10-17_22h50.55.379,motor_sequence_learning,2023.1.3,59.978647592482915,
150,v,30,1,121,1,,,,,311.8185723000206,312.8187062999932,312.8187062999932,312.8187062999932,312.8187062999932,312.8187062999932,313.8190310000209,313.8190310000209,v,1,0.17331760004162788,None,286699,001,2023-10-17_22h50.55.379,motor_sequence_learning,2023.1.3,59.978647592482915,
50,c,30,2,122,2,,,,,314.01846489997115,315.018447099952,315.018447099952,315.018447099952,315.018447099952,315.018447099952,316.01852879999205,316.01852879999205,c,1,0.06823309999890625,None,286699,001,2023-10-17_22h50.55.379,motor_sequence_learning,2023.1.3,59.978647592482915,
-150,z,30,3,123,3,,,,,316.118216099916,317.11862949992064,317.11862949992064,317.11862949992064,317.11862949992064,317.11862949992064,318.1197405999992,318.1197405999992,z,1,0.7289739000843838,None,286699,001,2023-10-17_22h50.55.379,motor_sequence_learning,2023.1.3,59.978647592482915,
-50,x,31,0,124,0,,,,,318.86851629999,319.8682365999557,319.8682365999557,319.8682365999557,319.8682365999557,319.8682365999557,320.8681467999704,320.8681467999704,x,1,0.32559170003514737,None,286699,001,2023-10-17_22h50.55.379,motor_sequence_learning,2023.1.3,59.978647592482915,
150,v,31,1,125,1,,,,,321.2186120999977,322.21867410000414,322.21867410000414,322.21867410000414,322.21867410000414,322.21867410000414,323.2183233000105,323.2183233000105,v,1,0.4645617000060156,None,286699,001,2023-10-17_22h50.55.379,motor_sequence_learning,2023.1.3,59.978647592482915,
50,c,31,2,126,2,,,,,323.701608399977,324.70220509998035,324.70220509998035,324.70220509998035,324.70220509998035,324.70220509998035,325.7016302999109,325.7016302999109,c,1,0.3261626000748947,None,286699,001,2023-10-17_22h50.55.379,motor_sequence_learning,2023.1.3,59.978647592482915,
-150,z,31,3,127,3,,,,,326.05135650001466,327.0345631999662,327.0345631999662,327.0345631999662,327.0345631999662,327.05158710002434,328.05162559996825,328.05162559996825,z,1,0.16753410000819713,None,286699,001,2023-10-17_22h50.55.379,motor_sequence_learning,2023.1.3,59.978647592482915,
-50,x,32,0,128,0,,,,,328.2353981999913,329.23508969997056,329.23508969997056,329.23508969997056,329.23508969997056,329.23508969997056,330.23499219992664,330.23499219992664,x,1,0.3553251000121236,None,286699,001,2023-10-17_22h50.55.379,motor_sequence_learning,2023.1.3,59.978647592482915,
150,v,32,1,129,1,,,,,330.6180060999468,331.61823729996104,331.61823729996104,331.61823729996104,331.61823729996104,331.61823729996104,332.61850219999906,332.61850219999906,v,1,0.2716946000000462,None,286699,001,2023-10-17_22h50.55.379,motor_sequence_learning,2023.1.3,59.978647592482915,
50,c,32,2,130,2,,,,,332.9178512999788,333.901644699974,333.901644699974,333.901644699974,333.901644699974,333.9192706999602,334.9181712999707,334.9181712999707,c,1,0.2742416000692174,None,286699,001,2023-10-17_22h50.55.379,motor_sequence_learning,2023.1.3,59.978647592482915,
-150,z,32,3,131,3,,,,,335.21797469991725,336.2174849999137,336.2174849999137,336.2174849999137,336.2174849999137,336.2174849999137,337.2179334999528,337.2179334999528,z,1,0.25636360002681613,None,286699,001,2023-10-17_22h50.55.379,motor_sequence_learning,2023.1.3,59.978647592482915,
-50,x,33,0,132,0,,,,,337.5015970999375,338.50152449996676,338.50152449996676,338.50152449996676,338.50152449996676,338.50152449996676,339.5011875999626,339.5011875999626,x,1,0.3344040000811219,None,286699,001,2023-10-17_22h50.55.379,motor_sequence_learning,2023.1.3,59.978647592482915,
150,v,33,1,133,1,,,,,339.85397499997634,340.8516270000255,340.8516270000255,340.8516270000255,340.8516270000255,340.867928499938,341.85127849993296,341.85127849993296,v,1,0.2852441999129951,None,286699,001,2023-10-17_22h50.55.379,motor_sequence_learning,2023.1.3,59.978647592482915,
50,c,33,2,134,2,,,,,342.1681084999582,343.167942399974,343.167942399974,343.167942399974,343.167942399974,343.167942399974,344.1678691999987,344.1678691999987,c,1,0.5834229999454692,None,286699,001,2023-10-17_22h50.55.379,motor_sequence_learning,2023.1.3,59.978647592482915,
-150,z,33,3,135,3,,,,,344.78482619998977,345.7847087000264,345.7847087000264,345.7847087000264,345.7847087000264,345.7847087000264,346.78482239996083,346.78482239996083,z,1,0.30250300001353025,None,286699,001,2023-10-17_22h50.55.379,motor_sequence_learning,2023.1.3,59.978647592482915,
-50,x,34,0,136,0,,,,,347.11778500000946,348.11904549994506,348.11904549994506,348.11904549994506,348.11904549994506,348.11904549994506,349.1181025999831,349.1181025999831,x,1,0.529595399973914,None,286699,001,2023-10-17_22h50.55.379,motor_sequence_learning,2023.1.3,59.978647592482915,
150,v,34,1,137,1,,,,,349.66808189998847,350.66806769999675,350.66806769999675,350.66806769999675,350.66806769999675,350.66806769999675,351.6673277999507,351.6673277999507,v,1,0.45594370004255325,None,286699,001,2023-10-17_22h50.55.379,motor_sequence_learning,2023.1.3,59.978647592482915,
50,c,34,2,138,2,,,,,352.15032709995285,353.13485369994305,353.13485369994305,353.13485369994305,353.13485369994305,353.1510746999411,354.13444619998336,354.13444619998336,c,1,0.37636140000540763,None,286699,001,2023-10-17_22h50.55.379,motor_sequence_learning,2023.1.3,59.978647592482915,
-150,z,34,3,139,3,,,,,354.5343257000204,355.5344966999255,355.5344966999255,355.5344966999255,355.5344966999255,355.5344966999255,356.53417350002564,356.53417350002564,z,1,0.8100226999958977,None,286699,001,2023-10-17_22h50.55.379,motor_sequence_learning,2023.1.3,59.978647592482915,
-50,x,35,0,140,0,,,,,357.36766879993957,358.36792140000034,358.36792140000034,358.36792140000034,358.36792140000034,358.36792140000034,359.36767449998297,359.36767449998297,x,1,0.4169148000655696,None,286699,001,2023-10-17_22h50.55.379,motor_sequence_learning,2023.1.3,59.978647592482915,
150,v,35,1,141,1,,,,,359.80086339998525,360.80112700001337,360.80112700001337,360.80112700001337,360.80112700001337,360.80112700001337,361.8008066000184,361.8008066000184,v,1,0.31424669991247356,None,286699,001,2023-10-17_22h50.55.379,motor_sequence_learning,2023.1.3,59.978647592482915,
50,c,35,2,142,2,,,,,362.13436519994866,363.13404469995294,363.13404469995294,363.13404469995294,363.13404469995294,363.13404469995294,364.1343569000019,364.1343569000019,c,1,0.3946789000183344,None,286699,001,2023-10-17_22h50.55.379,motor_sequence_learning,2023.1.3,59.978647592482915,
-150,z,35,3,143,3,,,,,364.5507292000111,365.53430619998835,365.53430619998835,365.53430619998835,365.53430619998835,365.55093349993695,366.53421309997793,366.53421309997793,z,1,0.19101670000236481,None,286699,001,2023-10-17_22h50.55.379,motor_sequence_learning,2023.1.3,59.978647592482915,
-50,x,36,0,144,0,,,,,366.7508653999539,367.75126970000565,367.75126970000565,367.75126970000565,367.75126970000565,367.75126970000565,368.7510615999345,368.7510615999345,x,1,0.3178059000056237,None,286699,001,2023-10-17_22h50.55.379,motor_sequence_learning,2023.1.3,59.978647592482915,
150,v,36,1,145,1,,,,,369.10134219995234,370.1010145000182,370.1010145000182,370.1010145000182,370.1010145000182,370.1010145000182,371.1007344999816,371.1007344999816,v,1,0.2990631000138819,None,286699,001,2023-10-17_22h50.55.379,motor_sequence_learning,2023.1.3,59.978647592482915,
50,c,36,2,146,2,,,,,371.41758110001683,372.4176507999655,372.4176507999655,372.4176507999655,372.4176507999655,372.4176507999655,373.41730729991104,373.41730729991104,c,1,0.3159080999903381,None,286699,001,2023-10-17_22h50.55.379,motor_sequence_learning,2023.1.3,59.978647592482915,
-150,z,36,3,147,3,,,,,373.75097679998726,374.75088940002024,374.75088940002024,374.75088940002024,374.75088940002024,374.75088940002024,375.7505519000115,375.7505519000115,z,1,0.0595148999709636,None,286699,001,2023-10-17_22h50.55.379,motor_sequence_learning,2023.1.3,59.978647592482915,
-50,x,37,0,148,0,,,,,375.8338073999621,376.81756029999815,376.81756029999815,376.81756029999815,376.81756029999815,376.8340286000166,377.83379980002064,377.83379980002064,x,1,0.36335770005825907,None,286699,001,2023-10-17_22h50.55.379,motor_sequence_learning,2023.1.3,59.978647592482915,
150,v,37,1,149,1,,,,,378.21740480000153,379.2175517999567,379.2175517999567,379.2175517999567,379.2175517999567,379.2175517999567,380.2181284999242,380.2181284999242,v,1,0.8986230000155047,None,286699,001,2023-10-17_22h50.55.379,motor_sequence_learning,2023.1.3,59.978647592482915,
50,c,37,2,150,2,,,,,381.1339860999724,382.13395619997755,382.13395619997755,382.13395619997755,382.13395619997755,382.13395619997755,383.1339268999873,383.1339268999873,c,1,0.2477598999394104,None,286699,001,2023-10-17_22h50.55.379,motor_sequence_learning,2023.1.3,59.978647592482915,
-150,z,37,3,151,3,,,,,383.4005411999533,384.40034940000623,384.40034940000623,384.40034940000623,384.40034940000623,384.40034940000623,385.4007204999216,385.4007204999216,z,1,0.3418200999731198,None,286699,001,2023-10-17_22h50.55.379,motor_sequence_learning,2023.1.3,59.978647592482915,
-50,x,38,0,152,0,,,,,385.7669880000176,386.7508585000178,386.7508585000178,386.7508585000178,386.7508585000178,386.7674259999767,387.75042439997196,387.75042439997196,x,1,0.3590928000630811,None,286699,001,2023-10-17_22h50.55.379,motor_sequence_learning,2023.1.3,59.978647592482915,
150,v,38,1,153,1,,,,,388.1338434999343,389.1336569999112,389.1336569999112,389.1336569999112,389.1336569999112,389.1336569999112,390.1335425999714,390.1335425999714,v,1,1.0177346999989823,None,286699,001,2023-10-17_22h50.55.379,motor_sequence_learning,2023.1.3,59.978647592482915,
50,c,38,2,154,2,,,,,391.18341509997845,392.167059600004,392.167059600004,392.167059600004,392.167059600004,392.1838267999701,393.167178099975,393.167178099975,c,1,0.5421140000689775,None,286699,001,2023-10-17_22h50.55.379,motor_sequence_learning,2023.1.3,59.978647592482915,
-150,z,38,3,155,3,,,,,393.73361679993104,394.7343716999749,394.7343716999749,394.7343716999749,394.7343716999749,394.7343716999749,395.73399400000926,395.73399400000926,z,1,0.6306033000582829,None,286699,001,2023-10-17_22h50.55.379,motor_sequence_learning,2023.1.3,59.978647592482915,
-50,x,39,0,156,0,,,,,396.3838489999762,397.3840513000032,397.3840513000032,397.3840513000032,397.3840513000032,397.3840513000032,398.38386019994505,398.38386019994505,x,1,0.43734930001664907,None,286699,001,2023-10-17_22h50.55.379,motor_sequence_learning,2023.1.3,59.978647592482915,
150,v,39,1,157,1,,,,,398.85029329999816,399.85057559993584,399.85057559993584,399.85057559993584,399.85057559993584,399.85057559993584,400.8501960999565,400.8501960999565,v,1,0.8177003000164405,None,286699,001,2023-10-17_22h50.55.379,motor_sequence_learning,2023.1.3,59.978647592482915,
50,c,39,2,158,2,,,,,401.7000906999456,402.7001415999839,402.7001415999839,402.7001415999839,402.7001415999839,402.7001415999839,403.700067400001,403.700067400001,c,1,0.4737631999887526,None,286699,001,2023-10-17_22h50.55.379,motor_sequence_learning,2023.1.3,59.978647592482915,
-150,z,39,3,159,3,,,,,404.2001630999148,405.2000714999158,405.2000714999158,405.2000714999158,405.2000714999158,405.2000714999158,406.2000681000063,406.2000681000063,z,1,0.5969892999855801,None,286699,001,2023-10-17_22h50.55.379,motor_sequence_learning,2023.1.3,59.978647592482915,
-50,x,40,0,160,0,,,,,406.81660689995624,407.81684230000246,407.81684230000246,407.81684230000246,407.81684230000246,407.81684230000246,408.81672869995236,408.81672869995236,x,1,0.40408279991243035,None,286699,001,2023-10-17_22h50.55.379,motor_sequence_learning,2023.1.3,59.978647592482915,
150,v,40,1,161,1,,,,,409.24965629994404,410.2333452999592,410.2333452999592,410.2333452999592,410.2333452999592,410.25024800002575,411.25038719992153,411.25038719992153,v,1,0.5777604000177234,None,286699,001,2023-10-17_22h50.55.379,motor_sequence_learning,2023.1.3,59.978647592482915,
50,c,40,2,162,2,,,,,411.85019909997936,412.8336282999953,412.8336282999953,412.8336282999953,412.8336282999953,412.8496007999638,413.8498670000117,413.8498670000117,c,1,0.45012619998306036,None,286699,001,2023-10-17_22h50.55.379,motor_sequence_learning,2023.1.3,59.978647592482915,
-150,z,40,3,163,3,,,,,414.31677529995795,415.3168125000084,415.3168125000084,415.3168125000084,415.3168125000084,415.3168125000084,416.3166675999528,416.3166675999528,z,1,0.44361119996756315,None,286699,001,2023-10-17_22h50.55.379,motor_sequence_learning,2023.1.3,59.978647592482915,
-50,x,41,0,164,0,,,,,416.7835691999644,417.78327329992317,417.78327329992317,417.78327329992317,417.78327329992317,417.78327329992317,418.7830633999547,418.7830633999547,x,1,0.3038001999957487,None,286699,001,2023-10-17_22h50.55.379,motor_sequence_learning,2023.1.3,59.978647592482915,
150,v,41,1,165,1,,,,,419.11696050001774,420.11665149999317,420.11665149999317,420.11665149999317,420.11665149999317,420.11665149999317,421.11627150001004,421.11627150001004,v,1,0.36735320009756833,None,286699,001,2023-10-17_22h50.55.379,motor_sequence_learning,2023.1.3,59.978647592482915,
50,c,41,2,166,2,,,,,421.51690299995244,422.51750269997865,422.51750269997865,422.51750269997865,422.51750269997865,422.51750269997865,423.5166746999603,423.5166746999603,c,1,0.3218256999971345,None,286699,001,2023-10-17_22h50.55.379,motor_sequence_learning,2023.1.3,59.978647592482915,
-150,z,41,3,167,3,,,,,423.8662161999382,424.86657339998055,424.86657339998055,424.86657339998055,424.86657339998055,424.86657339998055,425.86646649998147,425.86646649998147,z,1,0.31317229999694973,None,286699,001,2023-10-17_22h50.55.379,motor_sequence_learning,2023.1.3,59.978647592482915,
-50,x,42,0,168,0,,,,,426.19986619998235,427.19981319992803,427.19981319992803,427.19981319992803,427.19981319992803,427.19981319992803,428.1998565000249,428.1998565000249,x,1,0.45572720002382994,None,286699,001,2023-10-17_22h50.55.379,motor_sequence_learning,2023.1.3,59.978647592482915,
150,v,42,1,169,1,,,,,428.68286890001036,429.66616759996396,429.66616759996396,429.66616759996396,429.66616759996396,429.68295399995986,430.6658029999817,430.6658029999817,v,1,0.4088236999232322,None,286699,001,2023-10-17_22h50.55.379,motor_sequence_learning,2023.1.3,59.978647592482915,
50,c,42,2,170,2,,,,,431.09976839995943,432.09997410001233,432.09997410001233,432.09997410001233,432.09997410001233,432.09997410001233,433.0994292999385,433.0994292999385,c,1,0.40100960002746433,None,286699,001,2023-10-17_22h50.55.379,motor_sequence_learning,2023.1.3,59.978647592482915,
-150,z,42,3,171,3,,,,,433.5164187999908,434.5162561999168,434.5162561999168,434.5162561999168,434.5162561999168,434.5162561999168,435.51654280000366,435.51654280000366,z,1,0.42187169997487217,None,286699,001,2023-10-17_22h50.55.379,motor_sequence_learning,2023.1.3,59.978647592482915,
-50,x,43,0,172,0,,,,,435.9662863999838,436.9662461000262,436.9662461000262,436.9662461000262,436.9662461000262,436.9662461000262,437.9659277999308,437.9659277999308,x,1,0.5549009999958798,None,286699,001,2023-10-17_22h50.55.379,motor_sequence_learning,2023.1.3,59.978647592482915,
150,v,43,1,173,1,,,,,438.54915139998775,439.5497618999798,439.5497618999798,439.5497618999798,439.5497618999798,439.5497618999798,440.5329417999601,440.5329417999601,v,1,0.29727069998625666,None,286699,001,2023-10-17_22h50.55.379,motor_sequence_learning,2023.1.3,59.978647592482915,
50,c,43,2,174,2,,,,,440.84993319993373,441.8495091999648,441.8495091999648,441.8495091999648,441.8495091999648,441.8495091999648,442.8495325000258,442.8495325000258,c,1,0.3840663000009954,None,286699,001,2023-10-17_22h50.55.379,motor_sequence_learning,2023.1.3,59.978647592482915,
-150,z,43,3,175,3,,,,,443.2662982000038,444.26608410000335,444.26608410000335,444.26608410000335,444.26608410000335,444.26608410000335,445.2661025999114,445.2661025999114,z,1,0.42223750008270144,None,286699,001,2023-10-17_22h50.55.379,motor_sequence_learning,2023.1.3,59.978647592482915,
-50,x,44,0,176,0,,,,,445.7158606000012,446.69933709991165,446.69933709991165,446.69933709991165,446.69933709991165,446.7161187999882,447.71598689991515,447.71598689991515,x,1,0.2804446999216452,None,286699,001,2023-10-17_22h50.55.379,motor_sequence_learning,2023.1.3,59.978647592482915,
150,v,44,1,177,1,,,,,448.01600309996866,449.0161698999582,449.0161698999582,449.0161698999582,449.0161698999582,449.0161698999582,450.0158898999216,450.0158898999216,v,1,0.5217311000451446,None,286699,001,2023-10-17_22h50.55.379,motor_sequence_learning,2023.1.3,59.978647592482915,
50,c,44,2,178,2,,,,,450.56589919992257,451.5663698000135,451.5663698000135,451.5663698000135,451.5663698000135,451.5663698000135,452.56643349991646,452.56643349991646,c,1,0.49974800006020814,None,286699,001,2023-10-17_22h50.55.379,motor_sequence_learning,2023.1.3,59.978647592482915,
-150,z,44,3,179,3,,,,,453.0823100999696,454.0826347999973,454.0826347999973,454.0826347999973,454.0826347999973,454.0826347999973,455.0841339000035,455.0841339000035,z,1,0.551379100070335,None,286699,001,2023-10-17_22h50.55.379,motor_sequence_learning,2023.1.3,59.978647592482915,
-50,x,45,0,180,0,,,,,455.66653659997974,456.6671272999374,456.6671272999374,456.6671272999374,456.6671272999374,456.6671272999374,457.6666635000147,457.6666635000147,x,1,1.7435476999962702,None,286699,001,2023-10-17_22h50.55.379,motor_sequence_learning,2023.1.3,59.978647592482915,
150,v,45,1,181,1,,,,,459.43464099999983,460.43365179991815,460.43365179991815,460.43365179991815,460.43365179991815,460.43365179991815,461.4329072999535,461.4329072999535,v,1,0.5896666999906301,None,286699,001,2023-10-17_22h50.55.379,motor_sequence_learning,2023.1.3,59.978647592482915,
50,c,45,2,182,2,,,,,462.0490323000122,463.0491341999732,463.0491341999732,463.0491341999732,463.0491341999732,463.0491341999732,464.0491252000211,464.0491252000211,c,1,0.23412120004650205,None,286699,001,2023-10-17_22h50.55.379,motor_sequence_learning,2023.1.3,59.978647592482915,
-150,z,45,3,183,3,,,,,464.31583969993517,465.31562499993015,465.31562499993015,465.31562499993015,465.31562499993015,465.31562499993015,466.31560999993235,466.31560999993235,z,1,0.5672306000487879,None,286699,001,2023-10-17_22h50.55.379,motor_sequence_learning,2023.1.3,59.978647592482915,
-50,x,46,0,184,0,,,,,466.89928539993707,467.8992218999192,467.8992218999192,467.8992218999192,467.8992218999192,467.8992218999192,468.8991115000099,468.8991115000099,x,1,0.41818439995404333,None,286699,001,2023-10-17_22h50.55.379,motor_sequence_learning,2023.1.3,59.978647592482915,
150,v,46,1,185,1,,,,,469.34865639999043,470.33239999995567,470.33239999995567,470.33239999995567,470.33239999995567,470.34897739998996,471.3486028999323,471.3486028999323,v,1,0.42003609996754676,None,286699,001,2023-10-17_22h50.55.379,motor_sequence_learning,2023.1.3,59.978647592482915,
50,c,46,2,186,2,,,,,471.79891569993924,472.7989607999334,472.7989607999334,472.7989607999334,472.7989607999334,472.7989607999334,473.79863699991256,473.79863699991256,c,1,0.3510727999964729,None,286699,001,2023-10-17_22h50.55.379,motor_sequence_learning,2023.1.3,59.978647592482915,
-150,z,46,3,187,3,,,,,474.1822109000059,475.1823251999449,475.1823251999449,475.1823251999449,475.1823251999449,475.1823251999449,476.18213929992635,476.18213929992635,z,1,0.42167850001715124,None,286699,001,2023-10-17_22h50.55.379,motor_sequence_learning,2023.1.3,59.978647592482915,
-50,x,47,0,188,0,,,,,476.6323237000033,477.63227059994824,477.63227059994824,477.63227059994824,477.63227059994824,477.63227059994824,478.63209979992826,478.63209979992826,x,1,0.6383903999812901,None,286699,001,2023-10-17_22h50.55.379,motor_sequence_learning,2023.1.3,59.978647592482915,
150,v,47,1,189,1,,,,,479.29893119994085,480.298901299946,480.298901299946,480.298901299946,480.298901299946,480.298901299946,481.2990018000128,481.2990018000128,v,1,0.33038470009341836,None,286699,001,2023-10-17_22h50.55.379,motor_sequence_learning,2023.1.3,59.978647592482915,
50,c,47,2,190,2,,,,,481.64869349997025,482.64893119991757,482.64893119991757,482.64893119991757,482.64893119991757,482.64893119991757,483.6488446999574,483.6488446999574,c,1,0.41992120002396405,None,286699,001,2023-10-17_22h50.55.379,motor_sequence_learning,2023.1.3,59.978647592482915,
-150,z,47,3,191,3,,,,,484.09854459995404,485.0994621999562,485.0994621999562,485.0994621999562,485.0994621999562,485.0994621999562,486.0993655999191,486.0993655999191,z,1,0.4259645000565797,None,286699,001,2023-10-17_22h50.55.379,motor_sequence_learning,2023.1.3,59.978647592482915,
-50,x,48,0,192,0,,,,,486.5485920999199,487.5489921999397,487.5489921999397,487.5489921999397,487.5489921999397,487.5489921999397,488.5489276999142,488.5489276999142,x,1,0.9127496000146493,None,286699,001,2023-10-17_22h50.55.379,motor_sequence_learning,2023.1.3,59.978647592482915,
150,v,48,1,193,1,,,,,489.4819405999733,490.4828808999155,490.4828808999155,490.4828808999155,490.4828808999155,490.4828808999155,491.4817879999755,491.4817879999755,v,1,1.2155109000159428,None,286699,001,2023-10-17_22h50.55.379,motor_sequence_learning,2023.1.3,59.978647592482915,
50,c,48,2,194,2,,,,,492.7153557999991,493.6983941999497,493.6983941999497,493.6983941999497,493.6983941999497,493.7150139999576,494.7161587999435,494.7161587999435,c,1,0.37106489995494485,None,286699,001,2023-10-17_22h50.55.379,motor_sequence_learning,2023.1.3,59.978647592482915,
-150,z,48,3,195,3,,,,,495.1152992999414,496.1151262000203,496.1151262000203,496.1151262000203,496.1151262000203,496.1151262000203,497.1149825999746,497.1149825999746,z,1,0.33039180003106594,None,286699,001,2023-10-17_22h50.55.379,motor_sequence_learning,2023.1.3,59.978647592482915,
-50,x,49,0,196,0,,,,,497.46507439995185,498.4651790999342,498.4651790999342,498.4651790999342,498.4651790999342,498.4651790999342,499.4651319999248,499.4651319999248,x,1,0.31544399994891137,None,286699,001,2023-10-17_22h50.55.379,motor_sequence_learning,2023.1.3,59.978647592482915,
150,v,49,1,197,1,,,,,499.79805420001503,500.7820866999682,500.7820866999682,500.7820866999682,500.7820866999682,500.7989657999715,501.7984625999816,501.7984625999816,v,1,0.25507360009942204,None,286699,001,2023-10-17_22h50.55.379,motor_sequence_learning,2023.1.3,59.978647592482915,
50,c,49,2,198,2,,,,,502.08151049993467,503.0819680999266,503.0819680999266,503.0819680999266,503.0819680999266,503.0819680999266,504.0819545999402,504.0819545999402,c,1,0.3786955000832677,None,286699,001,2023-10-17_22h50.55.379,motor_sequence_learning,2023.1.3,59.978647592482915,
-150,z,49,3,199,3,,,,,504.4821472999174,505.48146179993637,505.48146179993637,505.48146179993637,505.48146179993637,505.48146179993637,506.48126879998017,506.48126879998017,z,1,0.8615726999705657,None,286699,001,2023-10-17_22h50.55.379,motor_sequence_learning,2023.1.3,59.978647592482915,
-150,z,,,,,0,0,0,3,507.3647057999624,508.36538739991374,508.36538739991374,508.36538739991374,508.36538739991374,508.36538739991374,509.36530700000003,509.36530700000003,x,0,0.3371008000103757,None,286699,001,2023-10-17_22h50.55.379,motor_sequence_learning,2023.1.3,59.978647592482915,
150,v,,,,,0,1,1,1,509.7315887999721,510.7318098000251,510.7318098000251,510.7318098000251,510.7318098000251,510.7318098000251,511.7317314000102,511.7317314000102,v,1,0.34028909995686263,None,286699,001,2023-10-17_22h50.55.379,motor_sequence_learning,2023.1.3,59.978647592482915,
-150,z,,,,,0,2,2,3,512.0983776999637,513.0986126000062,513.0986126000062,513.0986126000062,513.0986126000062,513.0986126000062,514.0817855999339,514.0817855999339,c,0,0.706648699939251,None,286699,001,2023-10-17_22h50.55.379,motor_sequence_learning,2023.1.3,59.978647592482915,
-150,z,,,,,0,3,3,3,514.814913499984,515.8151397999609,515.8151397999609,515.8151397999609,515.8151397999609,515.8151397999609,516.814911799971,516.814911799971,z,1,0.3460651000496,None,286699,001,2023-10-17_22h50.55.379,motor_sequence_learning,2023.1.3,59.978647592482915,
150,v,,,,,1,0,4,1,517.1814914999995,518.1817884999327,518.1817884999327,518.1817884999327,518.1817884999327,518.1817884999327,519.1811719000107,519.1811719000107,v,1,1.0788920000195503,None,286699,001,2023-10-17_22h50.55.379,motor_sequence_learning,2023.1.3,59.978647592482915,
50,c,,,,,1,1,5,2,520.2812433999497,521.2649756999454,521.2649756999454,521.2649756999454,521.2649756999454,521.281450200011,522.2816073999275,522.2816073999275,c,1,0.6316800999920815,None,286699,001,2023-10-17_22h50.55.379,motor_sequence_learning,2023.1.3,59.978647592482915,
-150,z,,,,,1,2,6,3,522.9313911999343,523.931586700026,523.931586700026,523.931586700026,523.931586700026,523.931586700026,524.9311930999393,524.9311930999393,z,1,0.61053860001266,None,286699,001,2023-10-17_22h50.55.379,motor_sequence_learning,2023.1.3,59.978647592482915,
50,c,,,,,1,3,7,2,525.564812000026,526.5645903999684,526.5645903999684,526.5645903999684,526.5645903999684,526.5645903999684,527.564568099915,527.564568099915,c,1,0.8205637999344617,None,286699,001,2023-10-17_22h50.55.379,motor_sequence_learning,2023.1.3,59.978647592482915,
150,v,,,,,2,0,8,1,528.4145417999243,529.4151797000086,529.4151797000086,529.4151797000086,529.4151797000086,529.4151797000086,530.4149259999394,530.4149259999394,v,1,0.7152134999632835,None,286699,001,2023-10-17_22h50.55.379,motor_sequence_learning,2023.1.3,59.978647592482915,
-50,x,,,,,2,1,9,0,531.1477470999816,532.1485918000108,532.1485918000108,532.1485918000108,532.1485918000108,532.1485918000108,533.1480901999166,533.1480901999166,x,1,0.5679055999498814,None,286699,001,2023-10-17_22h50.55.379,motor_sequence_learning,2023.1.3,59.978647592482915,
-50,x,,,,,2,2,10,0,533.747815700015,534.748025399982,534.748025399982,534.748025399982,534.748025399982,534.748025399982,535.7493610000238,535.7493610000238,x,1,0.5812379000708461,None,286699,001,2023-10-17_22h50.55.379,motor_sequence_learning,2023.1.3,59.978647592482915,
150,v,,,,,2,3,11,1,536.3476835999172,537.347984699998,537.347984699998,537.347984699998,537.347984699998,537.347984699998,538.3477128000231,538.3477128000231,v,1,0.7180824000388384,None,286699,001,2023-10-17_22h50.55.379,motor_sequence_learning,2023.1.3,59.978647592482915,
-150,z,,,,,3,0,12,3,539.0985576999374,540.0809308999451,540.0809308999451,540.0809308999451,540.0809308999451,540.1159234999213,541.0978537999326,541.0978537999326,z,1,0.5151516000041738,None,286699,001,2023-10-17_22h50.55.379,motor_sequence_learning,2023.1.3,59.978647592482915,
50,c,,,,,3,1,13,2,541.6311145999935,542.6312490999699,542.6312490999699,542.6312490999699,542.6312490999699,542.6312490999699,543.6308867000043,543.6308867000043,c,1,0.8997892999323085,None,286699,001,2023-10-17_22h50.55.379,motor_sequence_learning,2023.1.3,59.978647592482915,
50,c,,,,,3,2,14,2,544.548013499938,545.5476818999741,545.5476818999741,545.5476818999741,545.5476818999741,545.5476818999741,546.5479574999772,546.5479574999772,c,1,0.7920189000433311,None,286699,001,2023-10-17_22h50.55.379,motor_sequence_learning,2023.1.3,59.978647592482915,
-50,x,,,,,3,3,15,0,547.3643916000146,548.364991499926,548.364991499926,548.364991499926,548.364991499926,548.364991499926,549.3642524000024,549.3642524000024,x,1,0.7857404000824317,None,286699,001,2023-10-17_22h50.55.379,motor_sequence_learning,2023.1.3,59.978647592482915,
50,c,,,,,4,0,16,2,550.183940900024,551.1651459999848,551.1651459999848,551.1651459999848,551.1651459999848,551.1976561999181,552.1811089999974,552.1811089999974,c,1,0.8022021999349818,None,286699,001,2023-10-17_22h50.55.379,motor_sequence_learning,2023.1.3,59.978647592482915,
150,v,,,,,4,1,17,1,553.0145744999172,554.0140953999944,554.0140953999944,554.0140953999944,554.0140953999944,554.0140953999944,555.0142011999851,555.0142011999851,v,1,0.7611606999998912,None,286699,001,2023-10-17_22h50.55.379,motor_sequence_learning,2023.1.3,59.978647592482915,
50,c,,,,,4,2,18,2,555.7973817000166,556.7809486999176,556.7809486999176,556.7809486999176,556.7809486999176,556.7976434999146,557.7975711999461,557.7975711999461,c,1,0.8909973999252543,None,286699,001,2023-10-17_22h50.55.379,motor_sequence_learning,2023.1.3,59.978647592482915,
150,v,,,,,4,3,19,1,558.714278099942,559.7143715999555,559.7143715999555,559.7143715999555,559.7143715999555,559.7143715999555,560.7142722000135,560.7142722000135,v,1,0.8170054000802338,None,286699,001,2023-10-17_22h50.55.379,motor_sequence_learning,2023.1.3,59.978647592482915,
-150,z,,,,,5,0,20,3,561.5641544000246,562.5641482999781,562.5641482999781,562.5641482999781,562.5641482999781,562.5641482999781,563.5644553999882,563.5644553999882,z,1,0.6162418999010697,None,286699,001,2023-10-17_22h50.55.379,motor_sequence_learning,2023.1.3,59.978647592482915,
50,c,,,,,5,1,21,2,564.1975101999706,565.1975251999684,565.1975251999684,565.1975251999684,565.1975251999684,565.1975251999684,566.196966700023,566.196966700023,c,1,0.8099476000061259,None,286699,001,2023-10-17_22h50.55.379,motor_sequence_learning,2023.1.3,59.978647592482915,
150,v,,,,,5,2,22,1,567.0304051999701,568.0139643999282,568.0139643999282,568.0139643999282,568.0139643999282,568.0307608000003,569.0309891999932,569.0309891999932,v,1,0.7083327999571338,None,286699,001,2023-10-17_22h50.55.379,motor_sequence_learning,2023.1.3,59.978647592482915,
50,c,,,,,5,3,23,2,569.7641268000007,570.7642238999251,570.7642238999251,570.7642238999251,570.7642238999251,570.7642238999251,571.7638642999809,571.7638642999809,c,1,0.745584600022994,None,286699,001,2023-10-17_22h50.55.379,motor_sequence_learning,2023.1.3,59.978647592482915,
-50,x,,,,,6,0,24,0,572.530462799943,573.530397699913,573.530397699913,573.530397699913,573.530397699913,573.530397699913,574.5308786999667,574.5308786999667,x,1,0.7679262000601739,None,286699,001,2023-10-17_22h50.55.379,motor_sequence_learning,2023.1.3,59.978647592482915,
-50,x,,,,,6,1,25,0,575.3306200000225,576.3305684999796,576.3305684999796,576.3305684999796,576.3305684999796,576.3305684999796,577.3309081000043,577.3309081000043,x,1,0.7276903999736533,None,286699,001,2023-10-17_22h50.55.379,motor_sequence_learning,2023.1.3,59.978647592482915,
-150,z,,,,,6,2,26,3,578.0803254999919,579.063905499992,579.063905499992,579.063905499992,579.063905499992,579.0814851999748,580.080130700022,580.080130700022,z,1,1.54405789996963,None,286699,001,2023-10-17_22h50.55.379,motor_sequence_learning,2023.1.3,59.978647592482915,
-150,z,,,,,6,3,27,3,581.6469839999918,582.6469487999566,582.6469487999566,582.6469487999566,582.6469487999566,582.6469487999566,583.6473578999285,583.6473578999285,z,1,0.5743070000316948,None,286699,001,2023-10-17_22h50.55.379,motor_sequence_learning,2023.1.3,59.978647592482915,
-150,z,,,,,7,0,28,3,584.2472946000053,585.2480971999466,585.2480971999466,585.2480971999466,585.2480971999466,585.2480971999466,586.2468762999633,586.2468762999633,z,1,0.9035627000266686,None,286699,001,2023-10-17_22h50.55.379,motor_sequence_learning,2023.1.3,59.978647592482915,
150,v,,,,,7,1,29,1,587.179885199992,588.1634184999857,588.1634184999857,588.1634184999857,588.1634184999857,588.1807731000008,589.1803438999923,589.1803438999923,v,1,1.0982585999881849,None,286699,001,2023-10-17_22h50.55.379,motor_sequence_learning,2023.1.3,59.978647592482915,
50,c,,,,,7,2,30,2,590.2967772999546,591.2967075000051,591.2967075000051,591.2967075000051,591.2967075000051,591.2967075000051,592.2967928999569,592.2967928999569,c,1,1.2758449000539258,None,286699,001,2023-10-17_22h50.55.379,motor_sequence_learning,2023.1.3,59.978647592482915,
50,c,,,,,7,3,31,2,593.5968773999484,594.5967866999563,594.5967866999563,594.5967866999563,594.5967866999563,594.5967866999563,595.5983474999666,595.5983474999666,c,1,0.9831707000266761,None,286699,001,2023-10-17_22h50.55.379,motor_sequence_learning,2023.1.3,59.978647592482915,
-150,z,,,,,8,0,32,3,596.6131688000169,597.6134086999809,597.6134086999809,597.6134086999809,597.6134086999809,597.6134086999809,598.6130110999802,598.6130110999802,z,1,0.8021415000548586,None,286699,001,2023-10-17_22h50.55.379,motor_sequence_learning,2023.1.3,59.978647592482915,
-50,x,,,,,8,1,33,0,599.4467737999512,600.4468061999651,600.4468061999651,600.4468061999651,600.4468061999651,600.4468061999651,601.4468004999217,601.4468004999217,x,1,0.9357730000047013,None,286699,001,2023-10-17_22h50.55.379,motor_sequence_learning,2023.1.3,59.978647592482915,
-150,z,,,,,8,2,34,3,602.4132489999756,603.4132028999738,603.4132028999738,603.4132028999738,603.4132028999738,603.4132028999738,604.4129627000075,604.4129627000075,z,1,0.6740568000823259,None,286699,001,2023-10-17_22h50.55.379,motor_sequence_learning,2023.1.3,59.978647592482915,
-50,x,,,,,8,3,35,0,605.1130443000002,606.0973700999748,606.0973700999748,606.0973700999748,606.0973700999748,606.1133442999562,607.1133014999796,607.1133014999796,x,1,0.9896395000396296,None,286699,001,2023-10-17_22h50.55.379,motor_sequence_learning,2023.1.3,59.978647592482915,
150,v,,,,,9,0,36,1,608.12969229999,609.129660799983,609.129660799983,609.129660799983,609.129660799983,609.129660799983,610.1297330999514,610.1297330999514,v,1,0.6975203999318182,None,286699,001,2023-10-17_22h50.55.379,motor_sequence_learning,2023.1.3,59.978647592482915,
-50,x,,,,,9,1,37,0,610.8464593000244,611.8462600000203,611.8462600000203,611.8462600000203,611.8462600000203,611.8462600000203,612.8464262000052,612.8464262000052,x,1,0.5971869999775663,None,286699,001,2023-10-17_22h50.55.379,motor_sequence_learning,2023.1.3,59.978647592482915,
-150,z,,,,,9,2,38,3,613.4630882999627,614.44648709998,614.44648709998,614.44648709998,614.44648709998,614.4628432999598,615.4633843000047,615.4633843000047,z,1,0.9613352000014856,None,286699,001,2023-10-17_22h50.55.379,motor_sequence_learning,2023.1.3,59.978647592482915,
50,c,,,,,9,3,39,2,616.4463965999894,617.447767799953,617.447767799953,617.447767799953,617.447767799953,617.447767799953,618.4469899999676,618.4469899999676,c,1,0.5731520000845194,None,286699,001,2023-10-17_22h50.55.379,motor_sequence_learning,2023.1.3,59.978647592482915,
150,v,,,,,10,0,40,1,619.0460556999315,620.029681099928,620.029681099928,620.029681099928,620.029681099928,620.0458029999863,621.0462877999526,621.0462877999526,v,1,0.7307491999818012,None,286699,001,2023-10-17_22h50.55.379,motor_sequence_learning,2023.1.3,59.978647592482915,
150,v,,,,,10,1,41,1,621.7961769999238,622.7796546999598,622.7796546999598,622.7796546999598,622.7796546999598,622.7962425999576,623.7962976999115,623.7962976999115,v,1,0.7503403999144211,None,286699,001,2023-10-17_22h50.55.379,motor_sequence_learning,2023.1.3,59.978647592482915,
50,c,,,,,10,2,42,2,624.5632803000044,625.5626545000123,625.5626545000123,625.5626545000123,625.5626545000123,625.5626545000123,626.5630353000015,626.5630353000015,c,1,0.7190197000745684,None,286699,001,2023-10-17_22h50.55.379,motor_sequence_learning,2023.1.3,59.978647592482915,
50,c,,,,,10,3,43,2,627.3124933999497,628.295937399962,628.295937399962,628.295937399962,628.295937399962,628.3129610000178,629.2962229999248,629.2962229999248,c,1,0.7264498999575153,None,286699,001,2023-10-17_22h50.55.379,motor_sequence_learning,2023.1.3,59.978647592482915,
150,v,,,,,11,0,44,1,630.0460099999327,631.0460924999788,631.0460924999788,631.0460924999788,631.0460924999788,631.0460924999788,632.04603889992,632.04603889992,v,1,0.695877299993299,None,286699,001,2023-10-17_22h50.55.379,motor_sequence_learning,2023.1.3,59.978647592482915,
-50,x,,,,,11,1,45,0,632.7623885999201,633.7464706000173,633.7464706000173,633.7464706000173,633.7464706000173,633.7630292000249,634.7459142999724,634.7459142999724,x,1,0.7229024999542162,None,286699,001,2023-10-17_22h50.55.379,motor_sequence_learning,2023.1.3,59.978647592482915,
-50,x,,,,,11,2,46,0,635.4962926999433,636.4794732999289,636.4794732999289,636.4794732999289,636.4794732999289,636.4966069000075,637.4958217999665,637.4958217999665,x,1,0.6002496000146493,None,286699,001,2023-10-17_22h50.55.379,motor_sequence_learning,2023.1.3,59.978647592482915,
-150,z,,,,,11,3,47,3,638.1127284999238,639.1128615000052,639.1128615000052,639.1128615000052,639.1128615000052,639.1128615000052,640.1127728999127,640.1127728999127,z,1,0.5153024001047015,None,286699,001,2023-10-17_22h50.55.379,motor_sequence_learning,2023.1.3,59.978647592482915,
-150,z,,,,,12,0,48,3,640.6458921999438,641.6296224999242,641.6296224999242,641.6296224999242,641.6296224999242,641.6460623999592,642.646179299918,642.646179299918,z,1,0.5424925000406802,None,286699,001,2023-10-17_22h50.55.379,motor_sequence_learning,2023.1.3,59.978647592482915,
50,c,,,,,12,1,49,2,643.2124949999852,644.2126957,644.2126957,644.2126957,644.2126957,644.2126957,645.2124274999369,645.2124274999369,c,1,0.6581905001075938,None,286699,001,2023-10-17_22h50.55.379,motor_sequence_learning,2023.1.3,59.978647592482915,
-150,z,,,,,12,2,50,3,645.8956908999244,646.8792635999853,646.8792635999853,646.8792635999853,646.8792635999853,646.8957646000199,647.8956726000179,647.8956726000179,z,1,0.6915607000701129,None,286699,001,2023-10-17_22h50.55.379,motor_sequence_learning,2023.1.3,59.978647592482915,
50,c,,,,,12,3,51,2,648.6125893999124,649.5961704999208,649.5961704999208,649.5961704999208,649.5961704999208,649.6131158999633,650.6127464999445,650.6127464999445,c,1,0.6396638000151142,None,286699,001,2023-10-17_22h50.55.379,motor_sequence_learning,2023.1.3,59.978647592482915,
150,v,,,,,13,0,52,1,651.2788864999311,652.2624957999215,652.2624957999215,652.2624957999215,652.2624957999215,652.2792301999871,653.2781040000264,653.2781040000264,v,1,0.8166778999147937,None,286699,001,2023-10-17_22h50.55.379,motor_sequence_learning,2023.1.3,59.978647592482915,
50,c,,,,,13,1,53,2,654.1121509999502,655.1127779999515,655.1127779999515,655.1127779999515,655.1127779999515,655.1127779999515,656.1144990000175,656.1144990000175,v,0,0.8974385000765324,None,286699,001,2023-10-17_22h50.55.379,motor_sequence_learning,2023.1.3,59.978647592482915,
-50,x,,,,,13,2,54,0,657.0291370999767,658.0290662000189,658.0290662000189,658.0290662000189,658.0290662000189,658.0290662000189,659.0290884999558,659.0290884999558,x,1,0.6555381000507623,None,286699,001,2023-10-17_22h50.55.379,motor_sequence_learning,2023.1.3,59.978647592482915,
-150,z,,,,,13,3,55,3,659.7122170999646,660.696378499968,660.696378499968,660.696378499968,660.696378499968,660.7130858999444,661.7119564999593,661.7119564999593,z,1,0.8816711000399664,None,286699,001,2023-10-17_22h50.55.379,motor_sequence_learning,2023.1.3,59.978647592482915,
150,v,,,,,14,0,56,1,662.6121290000156,663.6123496999498,663.6123496999498,663.6123496999498,663.6123496999498,663.6123496999498,664.6126313999994,664.6126313999994,v,1,0.8183152999263257,None,286699,001,2023-10-17_22h50.55.379,motor_sequence_learning,2023.1.3,59.978647592482915,
-150,z,,,,,14,1,57,3,665.4632666999241,666.4623452000087,666.4623452000087,666.4623452000087,666.4623452000087,666.4623452000087,667.4624832000118,667.4624832000118,z,1,0.9961311999941245,None,286699,001,2023-10-17_22h50.55.379,motor_sequence_learning,2023.1.3,59.978647592482915,
-150,z,,,,,14,2,58,3,668.4789747999748,669.478832099936,669.478832099936,669.478832099936,669.478832099936,669.478832099936,670.4785497999983,670.4785497999983,z,1,0.9227929000044242,None,286699,001,2023-10-17_22h50.55.379,motor_sequence_learning,2023.1.3,59.978647592482915,
150,v,,,,,14,3,59,1,671.4286013999954,672.4122129000025,672.4122129000025,672.4122129000025,672.4122129000025,672.4290435999865,673.4132823999971,673.4132823999971,v,1,0.7174002999672666,None,286699,001,2023-10-17_22h50.55.379,motor_sequence_learning,2023.1.3,59.978647592482915,
150,v,,,,,15,0,60,1,674.1625475999899,675.1455682999222,675.1455682999222,675.1455682999222,675.1455682999222,675.1621510999976,676.1620101999724,676.1620101999724,v,1,0.6634624999715015,None,286699,001,2023-10-17_22h50.55.379,motor_sequence_learning,2023.1.3,59.978647592482915,
-50,x,,,,,15,1,61,0,676.8448626999743,677.8286780000199,677.8286780000199,677.8286780000199,677.8286780000199,677.8456231999444,678.8288625999121,678.8288625999121,x,1,0.5119116000132635,None,286699,001,2023-10-17_22h50.55.379,motor_sequence_learning,2023.1.3,59.978647592482915,
50,c,,,,,15,2,62,2,679.3618003999582,680.3621665999526,680.3621665999526,680.3621665999526,680.3621665999526,680.3621665999526,681.3616772999521,681.3616772999521,c,1,0.8329660000745207,None,286699,001,2023-10-17_22h50.55.379,motor_sequence_learning,2023.1.3,59.978647592482915,
-150,z,,,,,15,3,63,3,682.2120585999219,683.2121893999865,683.2121893999865,683.2121893999865,683.2121893999865,683.2121893999865,684.211926399963,684.211926399963,z,1,0.6058490000432357,None,286699,001,2023-10-17_22h50.55.379,motor_sequence_learning,2023.1.3,59.978647592482915,
150,v,,,,,16,0,64,1,684.8449596000137,685.8452372999163,685.8452372999163,685.8452372999163,685.8452372999163,685.8452372999163,686.8284752999898,686.8284752999898,v,1,0.7270504001062363,None,286699,001,2023-10-17_22h50.55.379,motor_sequence_learning,2023.1.3,59.978647592482915,
-150,z,,,,,16,1,65,3,687.5789889999432,688.5786159000127,688.5786159000127,688.5786159000127,688.5786159000127,688.5786159000127,689.578858199995,689.578858199995,z,1,0.5392091000685468,None,286699,001,2023-10-17_22h50.55.379,motor_sequence_learning,2023.1.3,59.978647592482915,
-50,x,,,,,16,2,66,0,690.144902799977,691.1454637999414,691.1454637999414,691.1454637999414,691.1454637999414,691.1454637999414,692.145102599985,692.145102599985,x,1,0.6261626000050455,None,286699,001,2023-10-17_22h50.55.379,motor_sequence_learning,2023.1.3,59.978647592482915,
150,v,,,,,16,3,67,1,692.7952285999199,693.7948305999162,693.7948305999162,693.7948305999162,693.7948305999162,693.7948305999162,694.7948047999525,694.7948047999525,v,1,0.891629199963063,None,286699,001,2023-10-17_22h50.55.379,motor_sequence_learning,2023.1.3,59.978647592482915,
-50,x,,,,,17,0,68,0,695.7116043999558,696.7115048000123,696.7115048000123,696.7115048000123,696.7115048000123,696.7115048000123,697.7122586999321,697.7122586999321,x,1,0.6198646000120789,None,286699,001,2023-10-17_22h50.55.379,motor_sequence_learning,2023.1.3,59.978647592482915,
-50,x,,,,,17,1,69,0,698.3615313000046,699.3615644000238,699.3615644000238,699.3615644000238,699.3615644000238,699.3615644000238,700.3619726999896,700.3619726999896,x,1,0.5933652999810874,None,286699,001,2023-10-17_22h50.55.379,motor_sequence_learning,2023.1.3,59.978647592482915,
150,v,,,,,17,2,70,1,700.9782468000194,701.9628698999295,701.9628698999295,701.9628698999295,701.9628698999295,701.979149300023,702.9781958999811,702.9781958999811,v,1,0.986195300007239,None,286699,001,2023-10-17_22h50.55.379,motor_sequence_learning,2023.1.3,59.978647592482915,
50,c,,,,,17,3,71,2,703.9949899999192,704.9950217999285,704.9950217999285,704.9950217999285,704.9950217999285,704.9950217999285,705.9946930999868,705.9946930999868,v,0,0.7223766000242904,None,286699,001,2023-10-17_22h50.55.379,motor_sequence_learning,2023.1.3,59.978647592482915,
-150,z,,,,,18,0,72,3,706.745093400008,707.74465160002,707.74465160002,707.74465160002,707.74465160002,707.74465160002,708.7444784999825,708.7444784999825,z,1,0.5907109000254422,None,286699,001,2023-10-17_22h50.55.379,motor_sequence_learning,2023.1.3,59.978647592482915,
50,c,,,,,18,1,73,2,709.3615374999354,710.3449118999997,710.3449118999997,710.3449118999997,710.3449118999997,710.3614632999524,711.3611020999961,711.3611020999961,c,1,0.7347883000038564,None,286699,001,2023-10-17_22h50.55.379,motor_sequence_learning,2023.1.3,59.978647592482915,
-50,x,,,,,18,2,74,0,712.1283505000174,713.1289060999407,713.1289060999407,713.1289060999407,713.1289060999407,713.1289060999407,714.128144999966,714.128144999966,x,1,0.7777940999949351,None,286699,001,2023-10-17_22h50.55.379,motor_sequence_learning,2023.1.3,59.978647592482915,
-50,x,,,,,18,3,75,0,714.92813809996,715.9278664999874,715.9278664999874,715.9278664999874,715.9278664999874,715.9278664999874,716.9284118999494,716.9284118999494,x,1,0.6246472999919206,None,286699,001,2023-10-17_22h50.55.379,motor_sequence_learning,2023.1.3,59.978647592482915,
-150,z,,,,,19,0,76,3,717.5779198999517,718.5777993999654,718.5777993999654,718.5777993999654,718.5777993999654,718.5777993999654,719.5777863999829,719.5777863999829,z,1,0.5251396000385284,None,286699,001,2023-10-17_22h50.55.379,motor_sequence_learning,2023.1.3,59.978647592482915,
-50,x,,,,,19,1,77,0,720.1276860999642,721.1279173999792,721.1279173999792,721.1279173999792,721.1279173999792,721.1279173999792,722.1282063999679,722.1282063999679,x,1,0.7726686000823975,None,286699,001,2023-10-17_22h50.55.379,motor_sequence_learning,2023.1.3,59.978647592482915,
150,v,,,,,19,2,78,1,722.9276659999741,723.9276615999406,723.9276615999406,723.9276615999406,723.9276615999406,723.9276615999406,724.9275707999477,724.9275707999477,v,1,0.9413251000223681,None,286699,001,2023-10-17_22h50.55.379,motor_sequence_learning,2023.1.3,59.978647592482915,
-150,z,,,,,19,3,79,3,725.8946940000169,726.8788139999378,726.8788139999378,726.8788139999378,726.8788139999378,726.8948461000109,727.8777895999374,727.8777895999374,z,1,0.7349224999779835,None,286699,001,2023-10-17_22h50.55.379,motor_sequence_learning,2023.1.3,59.978647592482915,
150,v,,,,,20,0,80,1,728.644297300023,729.6442062999122,729.6442062999122,729.6442062999122,729.6442062999122,729.6442062999122,730.6275952999713,730.6275952999713,v,1,0.8636069999774918,None,286699,001,2023-10-17_22h50.55.379,motor_sequence_learning,2023.1.3,59.978647592482915,
-50,x,,,,,20,1,81,0,731.5111442999914,732.5110911999363,732.5110911999363,732.5110911999363,732.5110911999363,732.5110911999363,733.5111195999198,733.5111195999198,x,1,0.8574510000180453,None,286699,001,2023-10-17_22h50.55.379,motor_sequence_learning,2023.1.3,59.978647592482915,
-50,x,,,,,20,2,82,0,734.3941705999896,735.3942413999466,735.3942413999466,735.3942413999466,735.3942413999466,735.3942413999466,736.3946684999391,736.3946684999391,x,1,0.6123353999573737,None,286699,001,2023-10-17_22h50.55.379,motor_sequence_learning,2023.1.3,59.978647592482915,
50,c,,,,,20,3,83,2,737.0276097999886,738.028498300002,738.028498300002,738.028498300002,738.028498300002,738.028498300002,739.0271830999991,739.0271830999991,c,1,0.9572573999175802,None,286699,001,2023-10-17_22h50.55.379,motor_sequence_learning,2023.1.3,59.978647592482915,
150,v,,,,,21,0,84,1,740.010780600016,741.0107435999671,741.0107435999671,741.0107435999671,741.0107435999671,741.0107435999671,741.9938467999455,741.9938467999455,v,1,1.1108847999712452,None,286699,001,2023-10-17_22h50.55.379,motor_sequence_learning,2023.1.3,59.978647592482915,
50,c,,,,,21,1,85,2,743.1273307999363,744.1288040999789,744.1288040999789,744.1288040999789,744.1288040999789,744.1288040999789,745.1107414999278,745.1107414999278,c,1,0.7241123999701813,None,286699,001,2023-10-17_22h50.55.379,motor_sequence_learning,2023.1.3,59.978647592482915,
50,c,,,,,21,2,86,2,745.8609744999558,746.8605630999664,746.8605630999664,746.8605630999664,746.8605630999664,746.8605630999664,747.8606250999728,747.8606250999728,c,1,0.6215962999267504,None,286699,001,2023-10-17_22h50.55.379,motor_sequence_learning,2023.1.3,59.978647592482915,
-50,x,,,,,21,3,87,0,748.5106447999133,749.51062429999,749.51062429999,749.51062429999,749.51062429999,749.51062429999,750.5105678000255,750.5105678000255,x,1,0.8728387000737712,None,286699,001,2023-10-17_22h50.55.379,motor_sequence_learning,2023.1.3,59.978647592482915,
-50,x,,,,,22,0,88,0,751.4105542999459,752.410221499973,752.410221499973,752.410221499973,752.410221499973,752.410221499973,753.4105475000106,753.4105475000106,x,1,0.5817834000336006,None,286699,001,2023-10-17_22h50.55.379,motor_sequence_learning,2023.1.3,59.978647592482915,
50,c,,,,,22,1,89,2,754.0101588999387,755.0108393999981,755.0108393999981,755.0108393999981,755.0108393999981,755.0108393999981,755.9945939999307,755.9945939999307,c,1,1.0691354000009596,None,286699,001,2023-10-17_22h50.55.379,motor_sequence_learning,2023.1.3,59.978647592482915,
-150,z,,,,,22,2,90,3,757.0959850000218,758.0945959999226,758.0945959999226,758.0945959999226,758.0945959999226,758.112409699941,759.0950407999335,759.0950407999335,z,1,0.7147671999409795,None,286699,001,2023-10-17_22h50.55.379,motor_sequence_learning,2023.1.3,59.978647592482915,
50,c,,,,,22,3,91,2,759.8279028999386,760.8279338999419,760.8279338999419,760.8279338999419,760.8279338999419,760.8279338999419,761.8270085999975,761.8270085999975,c,1,0.7996045000618324,None,286699,001,2023-10-17_22h50.55.379,motor_sequence_learning,2023.1.3,59.978647592482915,
-150,z,,,,,23,0,92,3,762.6436960999854,763.6437250999734,763.6437250999734,763.6437250999734,763.6437250999734,763.6437250999734,764.6441402999917,764.6441402999917,z,1,0.6800808999687433,None,286699,001,2023-10-17_22h50.55.379,motor_sequence_learning,2023.1.3,59.978647592482915,
50,c,,,,,23,1,93,2,765.3438781999284,766.343778599985,766.343778599985,766.343778599985,766.343778599985,766.343778599985,767.3437403999269,767.3437403999269,c,1,0.9407408999977633,None,286699,001,2023-10-17_22h50.55.379,motor_sequence_learning,2023.1.3,59.978647592482915,
50,c,,,,,23,2,94,2,768.3102070000023,769.3115045999875,769.3115045999875,769.3115045999875,769.3115045999875,769.3115045999875,770.3104450999526,770.3104450999526,c,1,0.7994915000163019,None,286699,001,2023-10-17_22h50.55.379,motor_sequence_learning,2023.1.3,59.978647592482915,
-50,x,,,,,23,3,95,0,771.1269492999418,772.1290457999567,772.1290457999567,772.1290457999567,772.1290457999567,772.1290457999567,773.1266941999784,773.1266941999784,x,1,0.6103047999786213,None,286699,001,2023-10-17_22h50.55.379,motor_sequence_learning,2023.1.3,59.978647592482915,
150,v,,,,,24,0,96,1,773.7602205999428,774.7603057000088,774.7603057000088,774.7603057000088,774.7603057000088,774.7603057000088,775.7601676000049,775.7601676000049,v,1,1.4546106000198051,None,286699,001,2023-10-17_22h50.55.379,motor_sequence_learning,2023.1.3,59.978647592482915,
150,v,,,,,24,1,97,1,777.2433875999413,778.2448453999823,778.2448453999823,778.2448453999823,778.2448453999823,778.2448453999823,779.2438272999134,779.2438272999134,v,1,0.6831713999854401,None,286699,001,2023-10-17_22h50.55.379,motor_sequence_learning,2023.1.3,59.978647592482915,
-150,z,,,,,24,2,98,3,779.9436074999394,780.9434816999128,780.9434816999128,780.9434816999128,780.9434816999128,780.9434816999128,781.9436723999679,781.9436723999679,z,1,0.6894887998932973,None,286699,001,2023-10-17_22h50.55.379,motor_sequence_learning,2023.1.3,59.978647592482915,
-150,z,,,,,24,3,99,3,782.6599829000188,783.6436086000176,783.6436086000176,783.6436086000176,783.6436086000176,783.6599991000257,784.6436542000156,784.6436542000156,z,1,0.5579498999286443,None,286699,001,2023-10-17_22h50.55.379,motor_sequence_learning,2023.1.3,59.978647592482915,
-50,x,,,,,25,0,100,0,785.2266687999945,786.2268697000109,786.2268697000109,786.2268697000109,786.2268697000109,786.2268697000109,787.2132556999568,787.2132556999568,x,1,0.6906707000453025,None,286699,001,2023-10-17_22h50.55.379,motor_sequence_learning,2023.1.3,59.978647592482915,
-150,z,,,,,25,1,101,3,787.9266822999343,788.9280066000065,788.9280066000065,788.9280066000065,788.9280066000065,788.9280066000065,789.9263185999589,789.9263185999589,z,1,0.5522383999777958,None,286699,001,2023-10-17_22h50.55.379,motor_sequence_learning,2023.1.3,59.978647592482915,
-50,x,,,,,25,2,102,0,790.5097180999583,791.510170100024,791.510170100024,791.510170100024,791.510170100024,791.510170100024,792.5102197999367,792.5102197999367,x,1,0.5628075000131503,None,286699,001,2023-10-17_22h50.55.379,motor_sequence_learning,2023.1.3,59.978647592482915,
-150,z,,,,,25,3,103,3,793.0935635999776,794.0931022999575,794.0931022999575,794.0931022999575,794.0931022999575,794.0931022999575,795.0931814999785,795.0931814999785,z,1,0.6242638999829069,None,286699,001,2023-10-17_22h50.55.379,motor_sequence_learning,2023.1.3,59.978647592482915,
-50,x,,,,,26,0,104,0,795.7430209999438,796.7266993999947,796.7266993999947,796.7266993999947,796.7266993999947,796.7433729999466,797.7446145999711,797.7446145999711,x,1,0.8119578999467194,None,286699,001,2023-10-17_22h50.55.379,motor_sequence_learning,2023.1.3,59.978647592482915,
50,c,,,,,26,1,105,2,798.5864514999557,799.5768148999196,799.5768148999196,799.5768148999196,799.5768148999196,799.5942981999833,800.5600817999803,800.5600817999803,c,1,0.7842358000343665,None,286699,001,2023-10-17_22h50.55.379,motor_sequence_learning,2023.1.3,59.978647592482915,
-150,z,,,,,26,2,106,3,801.3618746999418,802.3603977999883,802.3603977999883,802.3603977999883,802.3603977999883,802.3798779000062,803.3606052999385,803.3606052999385,z,1,0.7888488000025973,None,286699,001,2023-10-17_22h50.55.379,motor_sequence_learning,2023.1.3,59.978647592482915,
50,c,,,,,26,3,107,2,804.177392099984,805.1767829000019,805.1767829000019,805.1767829000019,805.1767829000019,805.1767829000019,806.1767853000201,806.1767853000201,c,1,0.7133828999940306,None,286699,001,2023-10-17_22h50.55.379,motor_sequence_learning,2023.1.3,59.978647592482915,
150,v,,,,,27,0,108,1,806.9111593000125,807.9104497999651,807.9104497999651,807.9104497999651,807.9104497999651,807.9104497999651,808.9100304999156,808.9100304999156,v,1,0.9891012000152841,None,286699,001,2023-10-17_22h50.55.379,motor_sequence_learning,2023.1.3,59.978647592482915,
-50,x,,,,,27,1,109,0,809.9287499999627,810.927889399929,810.927889399929,810.927889399929,810.927889399929,810.927889399929,811.9268082999624,811.9268082999624,x,1,0.7197178999194875,None,286699,001,2023-10-17_22h50.55.379,motor_sequence_learning,2023.1.3,59.978647592482915,
-50,x,,,,,27,2,110,0,812.6773782999953,813.6770932999207,813.6770932999207,813.6770932999207,813.6770932999207,813.6770932999207,814.676401100005,814.676401100005,x,1,1.460857899975963,None,286699,001,2023-10-17_22h50.55.379,motor_sequence_learning,2023.1.3,59.978647592482915,
50,c,,,,,27,3,111,2,816.1602868000045,817.1437845999608,817.1437845999608,817.1437845999608,817.1437845999608,817.159831799916,818.1606949999696,818.1606949999696,c,1,1.0951527999714017,None,286699,001,2023-10-17_22h50.55.379,motor_sequence_learning,2023.1.3,59.978647592482915,
-150,z,,,,,28,0,112,3,819.2770639000228,820.2768205999164,820.2768205999164,820.2768205999164,820.2768205999164,820.2768205999164,821.2766904999735,821.2766904999735,z,1,0.64132910000626,None,286699,001,2023-10-17_22h50.55.379,motor_sequence_learning,2023.1.3,59.978647592482915,
50,c,,,,,28,1,113,2,821.9440340999281,822.9265203999821,822.9265203999821,822.9265203999821,822.9265203999821,822.943502399954,823.9431381999748,823.9431381999748,c,1,1.0513139999238774,None,286699,001,2023-10-17_22h50.55.379,motor_sequence_learning,2023.1.3,59.978647592482915,
-50,x,,,,,28,2,114,0,825.02681760001,826.0264252999332,826.0264252999332,826.0264252999332,826.0264252999332,826.0264252999332,827.0263358999509,827.0263358999509,x,1,0.6005046000937,None,286699,001,2023-10-17_22h50.55.379,motor_sequence_learning,2023.1.3,59.978647592482915,
-50,x,,,,,28,3,115,0,827.6429955000058,828.6440223000245,828.6440223000245,828.6440223000245,828.6440223000245,828.6440223000245,829.6427698999178,829.6427698999178,x,1,0.5399574999464676,None,286699,001,2023-10-17_22h50.55.379,motor_sequence_learning,2023.1.3,59.978647592482915,
150,v,,,,,29,0,116,1,830.2102225999115,831.2099343999289,831.2099343999289,831.2099343999289,831.2099343999289,831.2099343999289,832.1944752999116,832.1944752999116,v,1,0.811883999966085,None,286699,001,2023-10-17_22h50.55.379,motor_sequence_learning,2023.1.3,59.978647592482915,
50,c,,,,,29,1,117,2,833.0277853999287,834.0264998999191,834.0264998999191,834.0264998999191,834.0264998999191,834.0264998999191,835.0262196999975,835.0262196999975,c,1,0.7194573000306264,None,286699,001,2023-10-17_22h50.55.379,motor_sequence_learning,2023.1.3,59.978647592482915,
-50,x,,,,,29,2,118,0,835.7766352000181,836.7599482999649,836.7599482999649,836.7599482999649,836.7599482999649,836.77706699993,837.778727900004,837.778727900004,x,1,0.5736523000523448,None,286699,001,2023-10-17_22h50.55.379,motor_sequence_learning,2023.1.3,59.978647592482915,
-50,x,,,,,29,3,119,0,838.3760145999258,839.3774355999194,839.3774355999194,839.3774355999194,839.3774355999194,839.3774355999194,840.3775034999708,840.3775034999708,x,1,0.5863966000033543,None,286699,001,2023-10-17_22h50.55.379,motor_sequence_learning,2023.1.3,59.978647592482915,
50,c,,,,,30,0,120,2,840.9924582999665,841.9934877000051,841.9934877000051,841.9934877000051,841.9934877000051,841.9934877000051,842.9923447999172,842.9923447999172,c,1,0.6984121999703348,None,286699,001,2023-10-17_22h50.55.379,motor_sequence_learning,2023.1.3,59.978647592482915,
-50,x,,,,,30,1,121,0,843.7095557999564,844.7099220999517,844.7099220999517,844.7099220999517,844.7099220999517,844.7099220999517,845.7105960999615,845.7105960999615,x,1,0.6791932000778615,None,286699,001,2023-10-17_22h50.55.379,motor_sequence_learning,2023.1.3,59.978647592482915,
50,c,,,,,30,2,122,2,846.4103085999377,847.4102586000226,847.4102586000226,847.4102586000226,847.4102586000226,847.4102586000226,848.4098494999344,848.4098494999344,c,1,0.6724135000258684,None,286699,001,2023-10-17_22h50.55.379,motor_sequence_learning,2023.1.3,59.978647592482915,
-50,x,,,,,30,3,123,0,849.110697499942,850.1102104999591,850.1102104999591,850.1102104999591,850.1102104999591,850.1102104999591,851.0927070999751,851.0927070999751,x,1,0.5234250000212342,None,286699,001,2023-10-17_22h50.55.379,motor_sequence_learning,2023.1.3,59.978647592482915,
50,c,,,,,31,0,124,2,851.6434985999949,852.6430458999239,852.6430458999239,852.6430458999239,852.6430458999239,852.6430458999239,853.6435081999516,853.6435081999516,c,1,0.8176526000024751,None,286699,001,2023-10-17_22h50.55.379,motor_sequence_learning,2023.1.3,59.978647592482915,
50,c,,,,,31,1,125,2,854.4938289999263,855.4935094999382,855.4935094999382,855.4935094999382,855.4935094999382,855.4935094999382,856.4939776000101,856.4939776000101,c,1,0.6879700999706984,None,286699,001,2023-10-17_22h50.55.379,motor_sequence_learning,2023.1.3,59.978647592482915,
50,c,,,,,31,2,126,2,857.2094791999552,858.2102205000119,858.2102205000119,858.2102205000119,858.2102205000119,858.2102205000119,859.2093361999141,859.2093361999141,c,1,0.5727931000292301,None,286699,001,2023-10-17_22h50.55.379,motor_sequence_learning,2023.1.3,59.978647592482915,
50,c,,,,,31,3,127,2,859.810308599961,860.81027789996,860.81027789996,860.81027789996,860.81027789996,860.81027789996,861.8103007000173,861.8103007000173,c,1,0.6991891000652686,None,286699,001,2023-10-17_22h50.55.379,motor_sequence_learning,2023.1.3,59.978647592482915,
150,v,,,,,32,0,128,1,862.5254460999276,863.526577899931,863.526577899931,863.526577899931,863.526577899931,863.526577899931,864.5258742999285,864.5258742999285,v,1,0.8623369999695569,None,286699,001,2023-10-17_22h50.55.379,motor_sequence_learning,2023.1.3,59.978647592482915,
-150,z,,,,,32,1,129,3,865.4088873999426,866.4096883999882,866.4096883999882,866.4096883999882,866.4096883999882,866.4096883999882,867.4090100999456,867.4090100999456,z,1,0.6721508000046015,None,286699,001,2023-10-17_22h50.55.379,motor_sequence_learning,2023.1.3,59.978647592482915,
-50,x,,,,,32,2,130,0,868.1093882999849,869.1101965999696,869.1101965999696,869.1101965999696,869.1101965999696,869.1101965999696,870.1095767000224,870.1095767000224,x,1,0.5931879000272602,None,286699,001,2023-10-17_22h50.55.379,motor_sequence_learning,2023.1.3,59.978647592482915,
150,v,,,,,32,3,131,1,870.7256860999623,871.726833099965,871.726833099965,871.726833099965,871.726833099965,871.726833099965,872.7101393999765,872.7101393999765,v,1,0.8164159000152722,None,286699,001,2023-10-17_22h50.55.379,motor_sequence_learning,2023.1.3,59.978647592482915,
150,v,,,,,33,0,132,1,873.5588655999163,874.5428514999803,874.5428514999803,874.5428514999803,874.5428514999803,874.5588061999297,875.5592637999216,875.5592637999216,v,1,0.7916766999987885,None,286699,001,2023-10-17_22h50.55.379,motor_sequence_learning,2023.1.3,59.978647592482915,
150,v,,,,,33,1,133,1,876.3765776000218,877.3764452999458,877.3764452999458,877.3764452999458,877.3764452999458,877.3764452999458,878.3766165999696,878.3766165999696,v,1,0.7087106000399217,None,286699,001,2023-10-17_22h50.55.379,motor_sequence_learning,2023.1.3,59.978647592482915,
-150,z,,,,,33,2,134,3,879.1089158999966,880.1100610999856,880.1100610999856,880.1100610999856,880.1100610999856,880.1100610999856,881.1093040999258,881.1093040999258,z,1,0.6838352000340819,None,286699,001,2023-10-17_22h50.55.379,motor_sequence_learning,2023.1.3,59.978647592482915,
-50,x,,,,,33,3,135,0,881.8088111999677,882.8098012999399,882.8098012999399,882.8098012999399,882.8098012999399,882.8098012999399,883.808681699913,883.808681699913,x,1,0.5880783000029624,None,286699,001,2023-10-17_22h50.55.379,motor_sequence_learning,2023.1.3,59.978647592482915,
-150,z,,,,,34,0,136,3,884.4266718999716,885.426509700017,885.426509700017,885.426509700017,885.426509700017,885.426509700017,886.4265081000049,886.4265081000049,z,1,0.6160567000042647,None,286699,001,2023-10-17_22h50.55.379,motor_sequence_learning,2023.1.3,59.978647592482915,
-50,x,,,,,34,1,137,0,887.059096199926,888.0595890999539,888.0595890999539,888.0595890999539,888.0595890999539,888.0595890999539,889.0588931000093,889.0588931000093,x,1,0.6503118999535218,None,286699,001,2023-10-17_22h50.55.379,motor_sequence_learning,2023.1.3,59.978647592482915,
150,v,,,,,34,2,138,1,889.7257328999694,890.7259582999395,890.7259582999395,890.7259582999395,890.7259582999395,890.7259582999395,891.7253374999855,891.7253374999855,v,1,0.7006071000359952,None,286699,001,2023-10-17_22h50.55.379,motor_sequence_learning,2023.1.3,59.978647592482915,
50,c,,,,,34,3,139,2,892.4429455000209,893.4423163000029,893.4423163000029,893.4423163000029,893.4423163000029,893.4423163000029,894.4432043000124,894.4432043000124,c,1,0.6513146000215784,None,286699,001,2023-10-17_22h50.55.379,motor_sequence_learning,2023.1.3,59.978647592482915,
150,v,,,,,35,0,140,1,895.1249739999184,896.1257893999573,896.1257893999573,896.1257893999573,896.1257893999573,896.1257893999573,897.1255781999789,897.1255781999789,v,1,0.8752170000225306,None,286699,001,2023-10-17_22h50.55.379,motor_sequence_learning,2023.1.3,59.978647592482915,
50,c,,,,,35,1,141,2,898.0256997999968,899.026472199941,899.026472199941,899.026472199941,899.026472199941,899.026472199941,900.0247502999846,900.0247502999846,c,1,0.7011143999407068,None,286699,001,2023-10-17_22h50.55.379,motor_sequence_learning,2023.1.3,59.978647592482915,
50,c,,,,,35,2,142,2,900.741906399955,901.7428659999277,901.7428659999277,901.7428659999277,901.7428659999277,901.7428659999277,902.7429153999547,902.7429153999547,c,1,0.7470320999855176,None,286699,001,2023-10-17_22h50.55.379,motor_sequence_learning,2023.1.3,59.978647592482915,
150,v,,,,,35,3,143,1,903.5087982999394,904.5080480999313,904.5080480999313,904.5080480999313,904.5080480999313,904.5080480999313,905.5089722999837,905.5089722999837,v,1,1.1046160999685526,None,286699,001,2023-10-17_22h50.55.379,motor_sequence_learning,2023.1.3,59.978647592482915,
-150,z,,,,,36,0,144,3,906.6413944999222,907.6261297999881,907.6261297999881,907.6261297999881,907.6261297999881,907.6426672999514,908.6260032999562,908.6260032999562,z,1,0.6664501000195742,None,286699,001,2023-10-17_22h50.55.379,motor_sequence_learning,2023.1.3,59.978647592482915,
50,c,,,,,36,1,145,2,909.324740699958,910.3094015999231,910.3094015999231,910.3094015999231,910.3094015999231,910.3260854999535,911.3246954999631,911.3246954999631,c,1,0.6672685999656096,None,286699,001,2023-10-17_22h50.55.379,motor_sequence_learning,2023.1.3,59.978647592482915,
150,v,,,,,36,2,146,1,912.0082237999886,913.0086824999889,913.0086824999889,913.0086824999889,913.0086824999889,913.0086824999889,914.007916099974,914.007916099974,v,1,1.7488954999716952,None,286699,001,2023-10-17_22h50.55.379,motor_sequence_learning,2023.1.3,59.978647592482915,
150,v,,,,,36,3,147,1,915.7758588999277,916.7759252999676,916.7759252999676,916.7759252999676,916.7759252999676,916.7759252999676,917.7748865999747,917.7748865999747,v,1,0.691494100028649,None,286699,001,2023-10-17_22h50.55.379,motor_sequence_learning,2023.1.3,59.978647592482915,
150,v,,,,,37,0,148,1,918.4907919999678,919.491389599978,919.491389599978,919.491389599978,919.491389599978,919.491389599978,920.491375099984,920.491375099984,v,1,0.5940580000169575,None,286699,001,2023-10-17_22h50.55.379,motor_sequence_learning,2023.1.3,59.978647592482915,
150,v,,,,,37,1,149,1,921.1078514999244,922.1081313999603,922.1081313999603,922.1081313999603,922.1081313999603,922.1081313999603,923.1089473000029,923.1089473000029,v,1,0.7444618999725208,None,286699,001,2023-10-17_22h50.55.379,motor_sequence_learning,2023.1.3,59.978647592482915,
-150,z,,,,,37,2,150,3,923.874631499988,924.8752448000014,924.8752448000014,924.8752448000014,924.8752448000014,924.8752448000014,925.8749549000058,925.8749549000058,z,1,0.595559100038372,None,286699,001,2023-10-17_22h50.55.379,motor_sequence_learning,2023.1.3,59.978647592482915,
50,c,,,,,37,3,151,2,926.4913996999385,927.4914417000255,927.4914417000255,927.4914417000255,927.4914417000255,927.4914417000255,928.4911787000019,928.4911787000019,c,1,0.8873650999739766,None,286699,001,2023-10-17_22h50.55.379,motor_sequence_learning,2023.1.3,59.978647592482915,
150,v,,,,,38,0,152,1,929.408570199972,930.4085246999748,930.4085246999748,930.4085246999748,930.4085246999748,930.4085246999748,931.4085122999968,931.4085122999968,v,1,0.7814857000485063,None,286699,001,2023-10-17_22h50.55.379,motor_sequence_learning,2023.1.3,59.978647592482915,
